,PPT,trial,response,Correct,RT,Congruency,faces,emotion,Condition
0,2,1,P,1.0,1.311,1,0,1,1-0-1
1,2,2,P,0.0,0.998,1,0,0,0-0-1
2,2,3,Q,1.0,1.321,1,0,0,0-0-1
3,2,4,Q,1.0,1.1,0,0,0,0-0-0
4,2,5,P,1.0,0.762,0,1,1,1-1-0
5,2,6,P,1.0,1.871,1,1,1,1-1-1
6,2,7,Q,1.0,0.769,0,0,0,0-0-0
7,2,8,Q,1.0,0.75,1,0,0,0-0-1
8,2,9,Q,1.0,0.985,0,1,0,0-1-0
9,2,10,P,1.0,0.964,0,0,1,1-0-0
10,2,11,Q,1.0,0.799,0,1,0,0-1-0
11,2,12,Q,1.0,0.673,1,0,0,0-0-1
12,2,13,Q,1.0,0.673,0,1,0,0-1-0
13,2,14,P,1.0,0.715,1,1,1,1-1-1
14,2,15,Q,1.0,0.695,0,0,0,0-0-0
15,2,16,Q,0.0,0.671,1,0,1,1-0-1
16,2,17,Q,1.0,0.962,1,1,0,0-1-1
17,2,18,Q,1.0,0.714,0,0,0,0-0-0
18,2,19,P,1.0,0.673,1,1,1,1-1-1
19,2,20,P,1.0,0.832,0,1,1,1-1-0
20,2,21,Q,0.0,1.054,1,0,1,1-0-1
21,2,22,P,0.0,0.896,1,0,0,0-0-1
22,2,23,P,1.0,1.067,0,1,1,1-1-0
23,2,24,P,1.0,0.919,0,1,1,1-1-0
24,2,25,Q,1.0,1.026,1,1,0,0-1-1
25,2,26,P,1.0,0.575,0,1,1,1-1-0
26,2,27,Q,1.0,0.64,1,1,0,0-1-1
27,2,28,Q,1.0,0.836,1,1,0,0-1-1
28,2,29,Q,1.0,0.627,0,0,0,0-0-0
29,2,30,P,1.0,0.679,1,1,1,1-1-1
30,2,31,P,1.0,1.149,1,0,1,1-0-1
31,2,32,P,1.0,0.693,0,0,1,1-0-0
32,2,33,Q,1.0,0.72,1,1,0,0-1-1
33,2,34,P,1.0,0.693,0,1,1,1-1-0
34,2,35,Q,1.0,0.631,0,1,0,0-1-0
35,2,36,Q,1.0,0.568,0,1,0,0-1-0
36,2,37,Q,1.0,0.646,1,0,0,0-0-1
37,2,38,Q,0.0,0.926,0,0,1,1-0-0
38,2,39,Q,1.0,1.216,1,0,0,0-0-1
39,2,40,P,1.0,0.961,0,0,1,1-0-0
40,2,41,Q,1.0,0.771,1,1,0,0-1-1
41,2,42,P,1.0,0.791,0,0,1,1-0-0
42,2,43,P,1.0,0.713,1,1,1,1-1-1
43,2,44,P,1.0,0.832,1,0,1,1-0-1
44,2,45,Q,1.0,0.564,1,0,0,0-0-1
45,2,46,Q,1.0,0.67,0,0,0,0-0-0
46,2,47,Q,1.0,0.669,1,0,0,0-0-1
47,2,48,P,1.0,0.68,1,0,1,1-0-1
48,2,49,Q,1.0,0.811,1,1,0,0-1-1
49,2,50,P,1.0,0.567,0,0,1,1-0-0
50,2,51,Q,1.0,0.463,0,1,0,0-1-0
51,2,52,P,1.0,0.442,1,1,1,1-1-1
52,2,53,Q,1.0,0.637,0,0,0,0-0-0
53,2,54,P,0.0,0.504,1,1,0,0-1-1
54,2,55,P,1.0,0.87,1,0,1,1-0-1
55,2,56,P,1.0,0.721,0,1,1,1-1-0
56,2,57,Q,1.0,0.491,0,1,0,0-1-0
57,2,58,Q,1.0,0.639,1,0,0,0-0-1
58,2,59,P,1.0,0.58,0,0,1,1-0-0
59,2,60,Q,0.0,0.475,1,1,1,1-1-1
60,2,61,P,0.0,1.55,1,1,0,0-1-1
61,2,62,Q,1.0,0.835,0,1,0,0-1-0
62,2,63,P,1.0,0.76,1,0,1,1-0-1
63,2,64,Q,1.0,0.698,1,1,0,0-1-1
64,2,65,Q,1.0,0.775,0,0,0,0-0-0
65,2,66,P,1.0,0.936,1,0,1,1-0-1
66,2,67,P,1.0,0.784,0,1,1,1-1-0
67,2,68,Q,1.0,0.643,0,0,0,0-0-0
68,2,69,P,1.0,0.736,1,1,1,1-1-1
69,2,70,P,1.0,0.948,0,0,1,1-0-0
70,2,71,Q,1.0,0.576,1,0,0,0-0-1
71,2,72,Q,1.0,0.614,0,0,0,0-0-0
72,2,73,P,1.0,0.753,1,0,1,1-0-1
73,2,74,Q,1.0,0.892,0,0,0,0-0-0
74,2,75,Q,1.0,0.859,1,1,0,0-1-1
75,2,76,Q,1.0,0.657,0,0,0,0-0-0
76,2,77,P,1.0,0.648,1,1,1,1-1-1
77,2,78,Q,0.0,0.388,0,1,1,1-1-0
78,2,79,P,1.0,0.721,0,1,1,1-1-0
79,2,80,Q,1.0,0.925,1,0,0,0-0-1
80,2,81,Q,1.0,0.893,0,0,0,0-0-0
81,2,82,Q,0.0,0.652,1,1,1,1-1-1
82,2,83,Q,1.0,0.943,0,1,0,0-1-0
83,2,84,Q,1.0,0.765,1,0,0,0-0-1
84,2,85,P,1.0,0.741,1,1,1,1-1-1
85,2,86,Q,1.0,0.809,0,0,0,0-0-0
86,2,87,Q,1.0,0.661,0,1,0,0-1-0
87,2,88,P,1.0,1.075,1,0,1,1-0-1
88,2,89,Q,1.0,0.88,1,1,0,0-1-1
89,2,90,Q,1.0,0.927,1,1,0,0-1-1
90,2,91,Q,0.0,1.18,0,0,1,1-0-0
91,2,92,Q,0.0,0.905,0,0,1,1-0-0
92,2,93,Q,1.0,0.829,1,1,0,0-1-1
93,2,94,P,1.0,0.686,1,1,1,1-1-1
94,2,95,Q,1.0,0.735,0,0,0,0-0-0
95,2,96,P,1.0,0.703,1,1,1,1-1-1
96,2,97,P,1.0,0.606,0,1,1,1-1-0
97,2,98,P,1.0,0.763,0,1,1,1-1-0
98,2,99,Q,1.0,0.712,0,1,0,0-1-0
99,2,100,Q,0.0,0.864,1,0,1,1-0-1
100,2,101,P,1.0,0.941,0,0,1,1-0-0
101,2,102,P,1.0,0.757,1,0,1,1-0-1
102,2,103,Q,1.0,0.716,1,0,0,0-0-1
103,2,104,P,1.0,0.787,0,1,1,1-1-0
104,2,105,P,1.0,0.739,1,1,1,1-1-1
105,2,106,P,1.0,0.809,1,1,1,1-1-1
106,2,107,P,0.0,0.722,0,1,0,0-1-0
107,2,108,Q,1.0,0.925,1,1,0,0-1-1
108,2,109,P,0.0,1.797,0,0,0,0-0-0
109,2,110,P,1.0,0.813,1,0,1,1-0-1
110,2,111,P,0.0,1.508,0,1,0,0-1-0
111,2,112,P,1.0,0.955,1,0,1,1-0-1
112,2,113,Q,1.0,0.786,0,1,0,0-1-0
113,2,114,Q,1.0,0.742,1,0,0,0-0-1
114,2,115,Q,1.0,0.667,0,1,0,0-1-0
115,2,116,P,1.0,0.793,0,0,1,1-0-0
116,2,117,P,1.0,0.733,0,1,1,1-1-0
117,2,118,Q,1.0,0.614,1,1,0,0-1-1
118,2,119,Q,1.0,0.672,1,0,0,0-0-1
119,2,120,P,1.0,0.92,0,0,1,1-0-0
120,2,121,P,1.0,0.939,0,1,1,1-1-0
121,2,122,P,1.0,0.725,1,0,1,1-0-1
122,2,123,Q,1.0,0.905,0,1,0,0-1-0
123,2,124,P,1.0,0.857,1,1,1,1-1-1
124,2,125,P,1.0,0.82,1,0,1,1-0-1
125,2,126,P,1.0,0.737,0,0,1,1-0-0
126,2,127,Q,1.0,0.701,0,0,0,0-0-0
127,2,128,Q,1.0,0.59,0,0,0,0-0-0
128,2,129,P,1.0,0.536,1,1,1,1-1-1
129,2,130,Q,1.0,0.779,0,1,0,0-1-0
130,2,131,Q,1.0,0.655,1,0,0,0-0-1
131,2,132,Q,0.0,0.518,1,0,1,1-0-1
132,2,133,Q,1.0,0.824,0,1,0,0-1-0
133,2,134,Q,1.0,0.748,0,0,0,0-0-0
134,2,135,P,1.0,0.857,1,1,1,1-1-1
135,2,136,P,1.0,1.066,0,0,1,1-0-0
136,2,137,Q,0.0,0.876,0,1,1,1-1-0
137,2,138,P,0.0,1.807,0,1,0,0-1-0
138,2,139,Q,1.0,0.77,1,0,0,0-0-1
139,2,140,Q,1.0,0.845,1,0,0,0-0-1
140,2,141,P,1.0,0.694,1,1,1,1-1-1
141,2,142,Q,1.0,0.873,0,1,0,0-1-0
142,2,143,P,1.0,0.786,1,0,1,1-0-1
143,2,144,P,1.0,0.87,0,1,1,1-1-0
144,2,145,Q,1.0,0.677,0,1,0,0-1-0
145,2,146,P,0.0,0.677,1,1,0,0-1-1
146,2,147,P,1.0,0.886,1,0,1,1-0-1
147,2,148,Q,1.0,0.811,0,0,0,0-0-0
148,2,149,P,1.0,1.083,1,0,1,1-0-1
149,2,150,P,1.0,1.041,0,0,1,1-0-0
150,2,151,P,1.0,0.789,0,0,1,1-0-0
151,2,152,Q,1.0,0.883,1,0,0,0-0-1
152,2,153,P,1.0,0.729,0,0,1,1-0-0
153,2,154,P,1.0,0.584,0,0,1,1-0-0
154,2,155,P,1.0,0.794,1,0,1,1-0-1
155,2,156,Q,1.0,0.717,0,1,0,0-1-0
156,2,157,Q,1.0,1.219,1,1,0,0-1-1
157,2,158,P,0.0,0.925,1,1,0,0-1-1
158,2,159,P,1.0,0.708,0,0,1,1-0-0
159,2,160,Q,1.0,0.753,0,0,0,0-0-0
160,2,161,P,1.0,0.761,1,0,1,1-0-1
161,2,162,Q,1.0,0.55,0,0,0,0-0-0
162,2,163,Q,0.0,0.814,1,0,1,1-0-1
163,2,164,Q,1.0,0.749,1,0,0,0-0-1
164,2,165,P,1.0,0.9,1,1,1,1-1-1
165,2,166,Q,1.0,0.536,0,0,0,0-0-0
166,2,167,P,1.0,0.596,0,1,1,1-1-0
167,2,168,P,1.0,0.708,0,1,1,1-1-0
168,2,169,Q,1.0,0.973,1,1,0,0-1-1
169,2,170,P,1.0,0.777,0,1,1,1-1-0
170,2,171,P,1.0,0.574,1,0,1,1-0-1
171,2,172,P,0.0,0.544,1,1,0,0-1-1
172,2,173,Q,1.0,0.8,0,0,0,0-0-0
173,2,174,P,1.0,0.714,1,1,1,1-1-1
174,2,175,P,1.0,1.069,0,1,1,1-1-0
175,2,176,P,1.0,0.604,1,1,1,1-1-1
176,2,177,Q,1.0,0.763,1,1,0,0-1-1
177,2,178,P,1.0,0.466,0,0,1,1-0-0
178,2,179,P,1.0,0.594,0,0,1,1-0-0
179,2,180,Q,1.0,0.643,1,0,0,0-0-1
180,2,181,Q,1.0,0.866,1,0,0,0-0-1
181,2,182,Q,1.0,0.585,1,1,0,0-1-1
182,2,183,Q,0.0,0.729,0,1,1,1-1-0
183,2,184,Q,1.0,0.552,1,0,0,0-0-1
184,2,185,Q,0.0,0.572,0,1,1,1-1-0
185,2,186,P,1.0,0.59,1,1,1,1-1-1
186,2,187,Q,1.0,0.873,1,1,0,0-1-1
187,2,188,Q,1.0,0.889,0,1,0,0-1-0
188,2,189,P,1.0,0.979,0,0,1,1-0-0
189,2,190,Q,1.0,0.688,1,0,0,0-0-1
190,2,191,Q,1.0,0.609,1,1,0,0-1-1
191,2,192,Q,1.0,0.798,0,1,0,0-1-0
192,2,193,Q,0.0,0.51,1,1,1,1-1-1
193,2,194,P,1.0,1.402,0,1,1,1-1-0
194,2,195,Q,0.0,0.835,0,1,1,1-1-0
195,2,196,P,1.0,0.671,1,1,1,1-1-1
196,2,197,Q,1.0,0.801,0,0,0,0-0-0
197,2,198,Q,0.0,0.936,0,0,1,1-0-0
198,2,199,P,1.0,0.645,0,0,1,1-0-0
199,2,200,Q,1.0,0.793,0,1,0,0-1-0
200,4,1,P,1.0,1.824,1,0,1,1-0-1
201,4,2,Q,1.0,1.094,1,0,0,0-0-1
202,4,3,Q,1.0,1.308,1,0,0,0-0-1
203,4,4,Q,1.0,0.888,0,0,0,0-0-0
204,4,5,P,1.0,1.057,0,1,1,1-1-0
205,4,6,Q,0.0,1.079,1,1,1,1-1-1
206,4,7,Q,1.0,1.402,0,0,0,0-0-0
207,4,8,Q,1.0,0.988,1,0,0,0-0-1
208,4,9,Q,1.0,1.537,0,1,0,0-1-0
209,4,10,P,1.0,1.902,0,0,1,1-0-0
210,4,11,Q,1.0,1.941,0,1,0,0-1-0
211,4,12,Q,1.0,0.942,1,0,0,0-0-1
212,4,13,Q,1.0,1.129,0,1,0,0-1-0
213,4,14,P,1.0,1.316,1,1,1,1-1-1
214,4,15,Q,1.0,0.999,0,0,0,0-0-0
216,4,17,Q,1.0,0.901,1,1,0,0-1-1
217,4,18,Q,1.0,0.863,0,0,0,0-0-0
218,4,19,P,1.0,0.927,1,1,1,1-1-1
219,4,20,P,1.0,0.705,0,1,1,1-1-0
220,4,21,P,1.0,0.686,1,0,1,1-0-1
221,4,22,Q,1.0,0.84,1,0,0,0-0-1
222,4,23,P,1.0,0.942,0,1,1,1-1-0
223,4,24,P,1.0,0.866,0,1,1,1-1-0
224,4,25,Q,1.0,0.723,1,1,0,0-1-1
225,4,26,P,1.0,1.848,0,1,1,1-1-0
226,4,27,Q,1.0,0.682,1,1,0,0-1-1
227,4,28,Q,1.0,0.816,1,1,0,0-1-1
228,4,29,Q,1.0,0.798,0,0,0,0-0-0
229,4,30,P,1.0,0.741,1,1,1,1-1-1
230,4,31,P,1.0,0.951,1,0,1,1-0-1
231,4,32,P,1.0,0.786,0,0,1,1-0-0
232,4,33,Q,1.0,1.001,1,1,0,0-1-1
233,4,34,P,1.0,0.77,0,1,1,1-1-0
234,4,35,Q,1.0,0.644,0,1,0,0-1-0
235,4,36,Q,1.0,0.764,0,1,0,0-1-0
236,4,37,Q,1.0,1.085,1,0,0,0-0-1
237,4,38,P,1.0,1.099,0,0,1,1-0-0
238,4,39,Q,1.0,0.901,1,0,0,0-0-1
239,4,40,P,1.0,0.721,0,0,1,1-0-0
240,4,41,Q,1.0,0.892,1,1,0,0-1-1
241,4,42,P,1.0,0.668,0,0,1,1-0-0
242,4,43,P,1.0,1.028,1,1,1,1-1-1
243,4,44,P,1.0,0.957,1,0,1,1-0-1
244,4,45,Q,1.0,0.726,1,0,0,0-0-1
245,4,46,Q,1.0,0.894,0,0,0,0-0-0
246,4,47,Q,1.0,0.721,1,0,0,0-0-1
247,4,48,P,1.0,0.597,1,0,1,1-0-1
248,4,49,Q,1.0,0.542,1,1,0,0-1-1
249,4,50,P,1.0,0.67,0,0,1,1-0-0
250,4,51,Q,1.0,0.635,0,1,0,0-1-0
251,4,52,P,1.0,0.727,1,1,1,1-1-1
252,4,53,Q,1.0,0.687,0,0,0,0-0-0
253,4,54,Q,1.0,0.588,1,1,0,0-1-1
254,4,55,P,1.0,0.765,1,0,1,1-0-1
255,4,56,P,1.0,0.977,0,1,1,1-1-0
256,4,57,Q,1.0,0.761,0,1,0,0-1-0
257,4,58,Q,1.0,0.881,1,0,0,0-0-1
258,4,59,P,1.0,0.626,0,0,1,1-0-0
259,4,60,Q,0.0,0.923,1,1,1,1-1-1
260,4,61,Q,1.0,0.727,1,1,0,0-1-1
261,4,62,Q,1.0,1.145,0,1,0,0-1-0
262,4,63,P,1.0,0.743,1,0,1,1-0-1
263,4,64,Q,1.0,0.878,1,1,0,0-1-1
264,4,65,Q,1.0,0.823,0,0,0,0-0-0
265,4,66,P,1.0,0.808,1,0,1,1-0-1
266,4,67,P,1.0,0.999,0,1,1,1-1-0
267,4,68,Q,1.0,0.752,0,0,0,0-0-0
268,4,69,P,1.0,0.862,1,1,1,1-1-1
269,4,70,P,1.0,0.974,0,0,1,1-0-0
270,4,71,Q,1.0,0.65,1,0,0,0-0-1
271,4,72,Q,1.0,0.721,0,0,0,0-0-0
272,4,73,P,1.0,0.732,1,0,1,1-0-1
273,4,74,Q,1.0,1.181,0,0,0,0-0-0
274,4,75,Q,1.0,1.195,1,1,0,0-1-1
275,4,76,Q,1.0,0.602,0,0,0,0-0-0
276,4,77,P,1.0,0.668,1,1,1,1-1-1
277,4,78,P,1.0,0.797,0,1,1,1-1-0
278,4,79,P,1.0,0.58,0,1,1,1-1-0
279,4,80,Q,1.0,0.633,1,0,0,0-0-1
280,4,81,Q,1.0,1.042,0,0,0,0-0-0
281,4,82,P,1.0,0.659,1,1,1,1-1-1
282,4,83,Q,1.0,0.982,0,1,0,0-1-0
283,4,84,Q,1.0,0.759,1,0,0,0-0-1
284,4,85,P,1.0,0.557,1,1,1,1-1-1
285,4,86,Q,1.0,0.762,0,0,0,0-0-0
286,4,87,Q,1.0,0.923,0,1,0,0-1-0
287,4,88,P,1.0,0.864,1,0,1,1-0-1
288,4,89,Q,1.0,0.688,1,1,0,0-1-1
289,4,90,Q,1.0,0.738,1,1,0,0-1-1
290,4,91,P,1.0,1.166,0,0,1,1-0-0
291,4,92,Q,0.0,1.181,0,0,1,1-0-0
292,4,93,Q,1.0,0.72,1,1,0,0-1-1
293,4,94,P,1.0,0.8,1,1,1,1-1-1
294,4,95,Q,1.0,1.032,0,0,0,0-0-0
295,4,96,P,1.0,1.395,1,1,1,1-1-1
296,4,97,P,1.0,0.72,0,1,1,1-1-0
297,4,98,P,1.0,0.782,0,1,1,1-1-0
298,4,99,Q,1.0,0.757,0,1,0,0-1-0
299,4,100,P,1.0,0.759,1,0,1,1-0-1
300,4,101,P,1.0,0.69,0,0,1,1-0-0
301,4,102,P,1.0,0.804,1,0,1,1-0-1
302,4,103,Q,1.0,0.763,1,0,0,0-0-1
303,4,104,P,1.0,0.702,0,1,1,1-1-0
304,4,105,P,1.0,1.197,1,1,1,1-1-1
305,4,106,Q,0.0,1.294,1,1,1,1-1-1
306,4,107,Q,1.0,0.678,0,1,0,0-1-0
307,4,108,Q,1.0,0.997,1,1,0,0-1-1
308,4,109,Q,1.0,1.123,0,0,0,0-0-0
309,4,110,P,1.0,0.666,1,0,1,1-0-1
310,4,111,Q,1.0,0.805,0,1,0,0-1-0
311,4,112,Q,0.0,0.627,1,0,1,1-0-1
312,4,113,Q,1.0,0.712,0,1,0,0-1-0
313,4,114,Q,1.0,0.843,1,0,0,0-0-1
314,4,115,Q,1.0,0.665,0,1,0,0-1-0
315,4,116,P,1.0,0.964,0,0,1,1-0-0
316,4,117,P,1.0,0.887,0,1,1,1-1-0
317,4,118,Q,1.0,0.727,1,1,0,0-1-1
318,4,119,Q,1.0,0.739,1,0,0,0-0-1
319,4,120,P,1.0,0.767,0,0,1,1-0-0
320,4,121,P,1.0,1.129,0,1,1,1-1-0
321,4,122,P,1.0,1.358,1,0,1,1-0-1
322,4,123,Q,1.0,0.735,0,1,0,0-1-0
323,4,124,Q,0.0,0.728,1,1,1,1-1-1
324,4,125,P,1.0,0.676,1,0,1,1-0-1
325,4,126,P,1.0,0.731,0,0,1,1-0-0
326,4,127,Q,1.0,0.799,0,0,0,0-0-0
327,4,128,Q,1.0,1.303,0,0,0,0-0-0
328,4,129,P,1.0,0.903,1,1,1,1-1-1
329,4,130,Q,1.0,0.671,0,1,0,0-1-0
330,4,131,Q,1.0,1.138,1,0,0,0-0-1
331,4,132,P,1.0,0.763,1,0,1,1-0-1
332,4,133,Q,1.0,0.708,0,1,0,0-1-0
333,4,134,Q,1.0,1.63,0,0,0,0-0-0
334,4,135,P,1.0,0.732,1,1,1,1-1-1
335,4,136,P,1.0,0.822,0,0,1,1-0-0
336,4,137,P,1.0,0.702,0,1,1,1-1-0
337,4,138,Q,1.0,0.711,0,1,0,0-1-0
338,4,139,Q,1.0,0.797,1,0,0,0-0-1
339,4,140,Q,1.0,0.61,1,0,0,0-0-1
340,4,141,P,1.0,0.638,1,1,1,1-1-1
341,4,142,Q,1.0,0.778,0,1,0,0-1-0
342,4,143,P,1.0,0.937,1,0,1,1-0-1
343,4,144,P,1.0,0.798,0,1,1,1-1-0
344,4,145,Q,1.0,0.728,0,1,0,0-1-0
345,4,146,Q,1.0,0.956,1,1,0,0-1-1
346,4,147,P,1.0,0.97,1,0,1,1-0-1
347,4,148,Q,1.0,1.229,0,0,0,0-0-0
348,4,149,P,1.0,0.799,1,0,1,1-0-1
349,4,150,P,1.0,0.842,0,0,1,1-0-0
350,4,151,P,1.0,0.728,0,0,1,1-0-0
351,4,152,Q,1.0,0.884,1,0,0,0-0-1
352,4,153,P,1.0,0.69,0,0,1,1-0-0
353,4,154,P,1.0,0.97,0,0,1,1-0-0
354,4,155,P,1.0,0.589,1,0,1,1-0-1
355,4,156,Q,1.0,0.645,0,1,0,0-1-0
356,4,157,Q,1.0,0.993,1,1,0,0-1-1
357,4,158,Q,1.0,0.825,1,1,0,0-1-1
358,4,159,P,1.0,0.62,0,0,1,1-0-0
359,4,160,Q,1.0,1.098,0,0,0,0-0-0
360,4,161,P,1.0,0.891,1,0,1,1-0-1
361,4,162,Q,1.0,0.711,0,0,0,0-0-0
362,4,163,Q,0.0,0.932,1,0,1,1-0-1
363,4,164,Q,1.0,0.85,1,0,0,0-0-1
364,4,165,P,1.0,0.87,1,1,1,1-1-1
365,4,166,Q,1.0,1.195,0,0,0,0-0-0
366,4,167,P,1.0,0.724,0,1,1,1-1-0
367,4,168,P,1.0,0.713,0,1,1,1-1-0
368,4,169,Q,1.0,0.824,1,1,0,0-1-1
369,4,170,P,1.0,0.71,0,1,1,1-1-0
370,4,171,P,1.0,1.039,1,0,1,1-0-1
371,4,172,Q,1.0,0.651,1,1,0,0-1-1
372,4,173,Q,1.0,1.034,0,0,0,0-0-0
373,4,174,P,1.0,0.791,1,1,1,1-1-1
374,4,175,P,1.0,1.132,0,1,1,1-1-0
375,4,176,P,1.0,0.738,1,1,1,1-1-1
376,4,177,Q,1.0,0.838,1,1,0,0-1-1
377,4,178,Q,0.0,1.134,0,0,1,1-0-0
378,4,179,P,1.0,1.227,0,0,1,1-0-0
379,4,180,Q,1.0,0.885,1,0,0,0-0-1
380,4,181,Q,1.0,1.272,1,0,0,0-0-1
381,4,182,Q,1.0,0.888,1,1,0,0-1-1
382,4,183,P,1.0,0.79,0,1,1,1-1-0
383,4,184,Q,1.0,0.858,1,0,0,0-0-1
384,4,185,P,1.0,1.591,0,1,1,1-1-0
385,4,186,P,1.0,0.629,1,1,1,1-1-1
386,4,187,Q,1.0,0.617,1,1,0,0-1-1
387,4,188,Q,1.0,0.958,0,1,0,0-1-0
388,4,189,P,1.0,0.802,0,0,1,1-0-0
389,4,190,Q,1.0,0.832,1,0,0,0-0-1
390,4,191,Q,1.0,1.002,1,1,0,0-1-1
391,4,192,Q,1.0,0.723,0,1,0,0-1-0
392,4,193,P,1.0,0.94,1,1,1,1-1-1
393,4,194,P,1.0,0.864,0,1,1,1-1-0
394,4,195,P,1.0,1.022,0,1,1,1-1-0
395,4,196,P,1.0,0.859,1,1,1,1-1-1
396,4,197,Q,1.0,0.568,0,0,0,0-0-0
397,4,198,P,1.0,0.68,0,0,1,1-0-0
398,4,199,P,1.0,0.744,0,0,1,1-0-0
399,4,200,Q,1.0,1.37,0,1,0,0-1-0
400,4,201,P,1.0,0.884,1,0,1,1-0-1
401,5,1,Q,0.0,2.0,1,0,1,1-0-1
402,5,2,P,0.0,1.133,1,0,0,0-0-1
403,5,3,Q,1.0,0.86,1,0,0,0-0-1
404,5,4,Q,1.0,1.339,0,0,0,0-0-0
405,5,5,P,1.0,0.795,0,1,1,1-1-0
406,5,6,P,1.0,0.823,1,1,1,1-1-1
407,5,7,Q,1.0,0.776,0,0,0,0-0-0
408,5,8,Q,1.0,0.826,1,0,0,0-0-1
409,5,9,Q,1.0,0.732,0,1,0,0-1-0
410,5,10,P,1.0,0.754,0,0,1,1-0-0
411,5,11,Q,1.0,0.78,0,1,0,0-1-0
412,5,12,Q,1.0,0.859,1,0,0,0-0-1
413,5,13,Q,1.0,0.646,0,1,0,0-1-0
414,5,14,P,1.0,0.737,1,1,1,1-1-1
415,5,15,Q,1.0,0.703,0,0,0,0-0-0
416,5,16,P,1.0,0.619,1,0,1,1-0-1
417,5,17,Q,1.0,0.824,1,1,0,0-1-1
418,5,18,Q,1.0,0.587,0,0,0,0-0-0
419,5,19,P,1.0,0.715,1,1,1,1-1-1
420,5,20,P,1.0,0.632,0,1,1,1-1-0
421,5,21,P,1.0,0.647,1,0,1,1-0-1
422,5,22,Q,1.0,0.575,1,0,0,0-0-1
423,5,23,P,1.0,0.697,0,1,1,1-1-0
424,5,24,P,1.0,0.642,0,1,1,1-1-0
425,5,25,Q,1.0,0.709,1,1,0,0-1-1
426,5,26,P,1.0,0.674,0,1,1,1-1-0
427,5,27,Q,1.0,0.526,1,1,0,0-1-1
428,5,28,Q,1.0,0.648,1,1,0,0-1-1
429,5,29,Q,1.0,0.619,0,0,0,0-0-0
430,5,30,P,1.0,0.631,1,1,1,1-1-1
431,5,31,P,1.0,0.753,1,0,1,1-0-1
432,5,32,P,1.0,0.536,0,0,1,1-0-0
433,5,33,Q,1.0,0.634,1,1,0,0-1-1
434,5,34,P,1.0,0.52,0,1,1,1-1-0
435,5,35,Q,1.0,0.638,0,1,0,0-1-0
436,5,36,Q,1.0,0.498,0,1,0,0-1-0
437,5,37,Q,1.0,0.683,1,0,0,0-0-1
438,5,38,P,1.0,0.759,0,0,1,1-0-0
439,5,39,Q,1.0,0.626,1,0,0,0-0-1
440,5,40,P,1.0,0.539,0,0,1,1-0-0
441,5,41,Q,1.0,0.599,1,1,0,0-1-1
442,5,42,P,1.0,0.57,0,0,1,1-0-0
443,5,43,P,1.0,0.641,1,1,1,1-1-1
444,5,44,P,1.0,0.479,1,0,1,1-0-1
445,5,45,Q,1.0,0.596,1,0,0,0-0-1
446,5,46,Q,1.0,0.69,0,0,0,0-0-0
447,5,47,Q,1.0,0.57,1,0,0,0-0-1
448,5,48,P,1.0,0.402,1,0,1,1-0-1
449,5,49,Q,1.0,0.535,1,1,0,0-1-1
450,5,50,P,1.0,0.464,0,0,1,1-0-0
451,5,51,Q,1.0,0.594,0,1,0,0-1-0
452,5,52,Q,0.0,0.667,1,1,1,1-1-1
453,5,53,Q,1.0,0.725,0,0,0,0-0-0
454,5,54,Q,1.0,0.912,1,1,0,0-1-1
455,5,55,P,1.0,0.762,1,0,1,1-0-1
456,5,56,P,1.0,0.56,0,1,1,1-1-0
457,5,57,Q,1.0,0.568,0,1,0,0-1-0
458,5,58,Q,1.0,0.531,1,0,0,0-0-1
459,5,59,P,1.0,0.506,0,0,1,1-0-0
460,5,60,Q,0.0,0.637,1,1,1,1-1-1
461,5,61,Q,1.0,0.636,1,1,0,0-1-1
462,5,62,Q,1.0,0.519,0,1,0,0-1-0
463,5,63,P,1.0,0.791,1,0,1,1-0-1
464,5,64,Q,1.0,0.651,1,1,0,0-1-1
465,5,65,P,0.0,0.838,0,0,0,0-0-0
466,5,66,P,1.0,0.782,1,0,1,1-0-1
467,5,67,P,1.0,0.459,0,1,1,1-1-0
468,5,68,Q,1.0,0.57,0,0,0,0-0-0
469,5,69,P,1.0,0.683,1,1,1,1-1-1
470,5,70,P,1.0,0.962,0,0,1,1-0-0
471,5,71,Q,1.0,0.535,1,0,0,0-0-1
472,5,72,Q,1.0,0.782,0,0,0,0-0-0
473,5,73,P,1.0,0.773,1,0,1,1-0-1
474,5,74,Q,1.0,1.314,0,0,0,0-0-0
475,5,75,Q,1.0,0.766,1,1,0,0-1-1
476,5,76,Q,1.0,0.731,0,0,0,0-0-0
477,5,77,P,1.0,0.596,1,1,1,1-1-1
478,5,78,P,1.0,0.55,0,1,1,1-1-0
479,5,79,P,1.0,0.486,0,1,1,1-1-0
480,5,80,Q,1.0,0.462,1,0,0,0-0-1
481,5,81,Q,1.0,0.56,0,0,0,0-0-0
482,5,82,P,1.0,0.424,1,1,1,1-1-1
483,5,83,Q,1.0,0.691,0,1,0,0-1-0
484,5,84,Q,1.0,0.537,1,0,0,0-0-1
485,5,85,P,1.0,0.766,1,1,1,1-1-1
486,5,86,Q,1.0,0.535,0,0,0,0-0-0
487,5,87,Q,1.0,0.604,0,1,0,0-1-0
488,5,88,P,1.0,0.648,1,0,1,1-0-1
489,5,89,Q,1.0,0.634,1,1,0,0-1-1
490,5,90,Q,1.0,0.765,1,1,0,0-1-1
491,5,91,P,1.0,0.571,0,0,1,1-0-0
492,5,92,P,1.0,0.507,0,0,1,1-0-0
493,5,93,Q,1.0,0.579,1,1,0,0-1-1
494,5,94,P,1.0,0.652,1,1,1,1-1-1
495,5,95,Q,1.0,0.424,0,0,0,0-0-0
496,5,96,P,1.0,0.527,1,1,1,1-1-1
497,5,97,P,1.0,0.449,0,1,1,1-1-0
498,5,98,P,1.0,0.573,0,1,1,1-1-0
499,5,99,Q,1.0,0.506,0,1,0,0-1-0
500,5,100,P,1.0,0.614,1,0,1,1-0-1
501,5,101,P,1.0,0.561,0,0,1,1-0-0
502,5,102,P,1.0,0.571,1,0,1,1-0-1
503,5,103,Q,1.0,0.556,1,0,0,0-0-1
504,5,104,P,1.0,0.726,0,1,1,1-1-0
505,5,105,Q,0.0,0.727,1,1,1,1-1-1
506,5,106,Q,0.0,0.59,1,1,1,1-1-1
507,5,107,Q,1.0,1.251,0,1,0,0-1-0
508,5,108,Q,1.0,0.608,1,1,0,0-1-1
509,5,109,Q,1.0,0.781,0,0,0,0-0-0
510,5,110,P,1.0,0.639,1,0,1,1-0-1
511,5,111,Q,1.0,0.526,0,1,0,0-1-0
512,5,112,P,1.0,0.486,1,0,1,1-0-1
513,5,113,Q,1.0,0.457,0,1,0,0-1-0
514,5,114,P,0.0,0.941,1,0,0,0-0-1
515,5,115,Q,1.0,0.456,0,1,0,0-1-0
516,5,116,P,1.0,0.699,0,0,1,1-0-0
517,5,117,P,1.0,0.539,0,1,1,1-1-0
518,5,118,Q,1.0,0.536,1,1,0,0-1-1
519,5,119,Q,1.0,0.542,1,0,0,0-0-1
520,5,120,P,1.0,0.48,0,0,1,1-0-0
521,5,121,P,1.0,0.543,0,1,1,1-1-0
522,5,122,P,1.0,0.582,1,0,1,1-0-1
523,5,123,Q,1.0,0.574,0,1,0,0-1-0
524,5,124,Q,0.0,0.514,1,1,1,1-1-1
525,5,125,Q,0.0,0.669,1,0,1,1-0-1
526,5,126,P,1.0,0.678,0,0,1,1-0-0
527,5,127,Q,1.0,0.759,0,0,0,0-0-0
528,5,128,Q,1.0,0.704,0,0,0,0-0-0
529,5,129,P,1.0,0.689,1,1,1,1-1-1
530,5,130,Q,1.0,1.032,0,1,0,0-1-0
531,5,131,Q,1.0,0.868,1,0,0,0-0-1
532,5,132,P,1.0,0.614,1,0,1,1-0-1
533,5,133,Q,1.0,0.601,0,1,0,0-1-0
534,5,134,Q,1.0,0.642,0,0,0,0-0-0
535,5,135,P,1.0,0.499,1,1,1,1-1-1
536,5,136,P,1.0,0.517,0,0,1,1-0-0
537,5,137,P,1.0,0.756,0,1,1,1-1-0
538,5,138,Q,1.0,0.604,0,1,0,0-1-0
539,5,139,Q,1.0,0.61,1,0,0,0-0-1
540,5,140,Q,1.0,0.508,1,0,0,0-0-1
541,5,141,P,1.0,0.563,1,1,1,1-1-1
542,5,142,Q,1.0,0.558,0,1,0,0-1-0
543,5,143,P,1.0,0.711,1,0,1,1-0-1
544,5,144,P,1.0,0.524,0,1,1,1-1-0
545,5,145,Q,1.0,0.526,0,1,0,0-1-0
546,5,146,Q,1.0,0.656,1,1,0,0-1-1
547,5,147,P,1.0,0.483,1,0,1,1-0-1
548,5,148,Q,1.0,0.522,0,0,0,0-0-0
549,5,149,P,1.0,0.617,1,0,1,1-0-1
550,5,150,P,1.0,0.683,0,0,1,1-0-0
551,5,151,P,1.0,0.605,0,0,1,1-0-0
552,5,152,Q,1.0,0.54,1,0,0,0-0-1
553,5,153,P,1.0,0.68,0,0,1,1-0-0
554,5,154,P,1.0,0.526,0,0,1,1-0-0
555,5,155,P,1.0,0.526,1,0,1,1-0-1
556,5,156,Q,1.0,0.489,0,1,0,0-1-0
557,5,157,Q,1.0,0.508,1,1,0,0-1-1
558,5,158,Q,1.0,0.493,1,1,0,0-1-1
559,5,159,P,1.0,0.557,0,0,1,1-0-0
560,5,160,Q,1.0,0.571,0,0,0,0-0-0
561,5,161,P,1.0,0.62,1,0,1,1-0-1
562,5,162,Q,1.0,0.926,0,0,0,0-0-0
563,5,163,P,1.0,0.751,1,0,1,1-0-1
564,5,164,Q,1.0,0.724,1,0,0,0-0-1
565,5,165,P,1.0,0.577,1,1,1,1-1-1
566,5,166,Q,1.0,0.777,0,0,0,0-0-0
567,5,167,P,1.0,0.469,0,1,1,1-1-0
568,5,168,P,1.0,0.778,0,1,1,1-1-0
569,5,169,Q,1.0,0.623,1,1,0,0-1-1
570,5,170,P,1.0,0.442,0,1,1,1-1-0
571,5,171,P,1.0,0.418,1,0,1,1-0-1
572,5,172,Q,1.0,0.611,1,1,0,0-1-1
573,5,173,Q,1.0,0.638,0,0,0,0-0-0
574,5,174,P,1.0,0.752,1,1,1,1-1-1
575,5,175,Q,0.0,0.52,0,1,1,1-1-0
576,5,176,P,1.0,0.621,1,1,1,1-1-1
577,5,177,Q,1.0,0.636,1,1,0,0-1-1
578,5,178,P,1.0,0.541,0,0,1,1-0-0
579,5,179,P,1.0,0.561,0,0,1,1-0-0
580,5,180,Q,1.0,0.508,1,0,0,0-0-1
581,5,181,Q,1.0,0.634,1,0,0,0-0-1
582,5,182,Q,1.0,0.518,1,1,0,0-1-1
583,5,183,P,1.0,0.47,0,1,1,1-1-0
584,5,184,Q,1.0,0.582,1,0,0,0-0-1
585,5,185,P,1.0,0.563,0,1,1,1-1-0
586,5,186,P,1.0,0.481,1,1,1,1-1-1
587,5,187,Q,1.0,0.487,1,1,0,0-1-1
588,5,188,Q,1.0,0.779,0,1,0,0-1-0
589,5,189,P,1.0,0.548,0,0,1,1-0-0
590,5,190,Q,1.0,0.678,1,0,0,0-0-1
591,5,191,Q,1.0,0.556,1,1,0,0-1-1
592,5,192,Q,1.0,0.545,0,1,0,0-1-0
593,5,193,P,1.0,0.771,1,1,1,1-1-1
594,5,194,P,1.0,0.51,0,1,1,1-1-0
595,5,195,P,1.0,1.339,0,1,1,1-1-0
596,5,196,P,1.0,0.547,1,1,1,1-1-1
597,5,197,Q,1.0,0.772,0,0,0,0-0-0
598,5,198,P,1.0,0.7,0,0,1,1-0-0
599,5,199,P,1.0,0.588,0,0,1,1-0-0
600,5,200,Q,1.0,0.557,0,1,0,0-1-0
601,6,1,P,1.0,0.819,1,0,1,1-0-1
602,6,2,P,0.0,1.229,1,0,0,0-0-1
603,6,3,Q,1.0,0.749,1,0,0,0-0-1
604,6,4,Q,1.0,0.726,0,0,0,0-0-0
605,6,5,P,1.0,0.611,0,1,1,1-1-0
606,6,6,Q,0.0,0.709,1,1,1,1-1-1
607,6,7,Q,1.0,0.614,0,0,0,0-0-0
608,6,8,Q,1.0,0.606,1,0,0,0-0-1
609,6,9,Q,1.0,0.711,0,1,0,0-1-0
610,6,10,P,1.0,0.872,0,0,1,1-0-0
611,6,11,Q,1.0,0.621,0,1,0,0-1-0
612,6,12,Q,1.0,0.628,1,0,0,0-0-1
613,6,13,Q,1.0,0.623,0,1,0,0-1-0
614,6,14,P,1.0,0.634,1,1,1,1-1-1
615,6,15,Q,1.0,0.521,0,0,0,0-0-0
616,6,16,Q,0.0,0.617,1,0,1,1-0-1
617,6,17,Q,1.0,0.904,1,1,0,0-1-1
618,6,18,Q,1.0,0.619,0,0,0,0-0-0
619,6,19,P,1.0,1.047,1,1,1,1-1-1
620,6,20,Q,0.0,0.621,0,1,1,1-1-0
621,6,21,P,1.0,0.943,1,0,1,1-0-1
622,6,22,P,0.0,0.869,1,0,0,0-0-1
623,6,23,P,1.0,0.984,0,1,1,1-1-0
624,6,24,P,1.0,1.467,0,1,1,1-1-0
625,6,25,Q,1.0,0.649,1,1,0,0-1-1
626,6,26,P,1.0,0.897,0,1,1,1-1-0
627,6,27,Q,1.0,0.903,1,1,0,0-1-1
628,6,28,Q,1.0,0.616,1,1,0,0-1-1
629,6,29,Q,1.0,0.57,0,0,0,0-0-0
630,6,30,P,1.0,0.901,1,1,1,1-1-1
631,6,31,Q,0.0,1.265,1,0,1,1-0-1
632,6,32,P,1.0,1.512,0,0,1,1-0-0
633,6,33,Q,1.0,0.679,1,1,0,0-1-1
634,6,34,P,1.0,0.653,0,1,1,1-1-0
635,6,35,Q,1.0,0.84,0,1,0,0-1-0
636,6,36,Q,1.0,0.962,0,1,0,0-1-0
637,6,37,Q,1.0,0.984,1,0,0,0-0-1
638,6,38,P,1.0,1.156,0,0,1,1-0-0
639,6,39,Q,1.0,1.086,1,0,0,0-0-1
640,6,40,P,1.0,1.104,0,0,1,1-0-0
641,6,41,Q,1.0,0.953,1,1,0,0-1-1
642,6,42,P,1.0,1.19,0,0,1,1-0-0
643,6,43,Q,0.0,1.336,1,1,1,1-1-1
645,6,45,Q,1.0,0.512,1,0,0,0-0-1
646,6,46,Q,1.0,0.907,0,0,0,0-0-0
647,6,47,Q,1.0,1.342,1,0,0,0-0-1
648,6,48,P,1.0,0.641,1,0,1,1-0-1
649,6,49,Q,1.0,0.76,1,1,0,0-1-1
650,6,50,Q,0.0,1.026,0,0,1,1-0-0
651,6,51,Q,1.0,0.508,0,1,0,0-1-0
652,6,52,P,1.0,1.007,1,1,1,1-1-1
653,6,53,Q,1.0,0.54,0,0,0,0-0-0
654,6,54,Q,1.0,0.917,1,1,0,0-1-1
655,6,55,P,1.0,0.894,1,0,1,1-0-1
656,6,56,P,1.0,1.338,0,1,1,1-1-0
657,6,57,Q,1.0,0.954,0,1,0,0-1-0
658,6,58,Q,1.0,0.573,1,0,0,0-0-1
659,6,59,P,1.0,0.53,0,0,1,1-0-0
660,6,60,Q,0.0,0.589,1,1,1,1-1-1
661,6,61,Q,1.0,0.882,1,1,0,0-1-1
662,6,62,Q,1.0,0.748,0,1,0,0-1-0
663,6,63,P,1.0,1.026,1,0,1,1-0-1
664,6,64,Q,1.0,1.172,1,1,0,0-1-1
665,6,65,Q,1.0,0.633,0,0,0,0-0-0
666,6,66,P,1.0,0.872,1,0,1,1-0-1
667,6,67,P,1.0,0.752,0,1,1,1-1-0
668,6,68,Q,1.0,0.51,0,0,0,0-0-0
669,6,69,P,1.0,1.103,1,1,1,1-1-1
670,6,70,Q,0.0,0.794,0,0,1,1-0-0
671,6,71,Q,1.0,0.665,1,0,0,0-0-1
672,6,72,Q,1.0,0.623,0,0,0,0-0-0
673,6,73,P,1.0,1.213,1,0,1,1-0-1
674,6,74,P,0.0,0.625,0,0,0,0-0-0
675,6,75,Q,1.0,0.763,1,1,0,0-1-1
676,6,76,Q,1.0,0.685,0,0,0,0-0-0
677,6,77,P,1.0,0.609,1,1,1,1-1-1
678,6,78,P,1.0,0.891,0,1,1,1-1-0
679,6,79,P,1.0,1.103,0,1,1,1-1-0
680,6,80,Q,1.0,0.66,1,0,0,0-0-1
681,6,81,Q,1.0,0.861,0,0,0,0-0-0
682,6,82,P,1.0,0.543,1,1,1,1-1-1
683,6,83,Q,1.0,0.835,0,1,0,0-1-0
684,6,84,Q,1.0,0.783,1,0,0,0-0-1
685,6,85,P,1.0,0.613,1,1,1,1-1-1
686,6,86,Q,1.0,0.61,0,0,0,0-0-0
687,6,87,Q,1.0,0.641,0,1,0,0-1-0
688,6,88,P,1.0,1.315,1,0,1,1-0-1
689,6,89,Q,1.0,0.96,1,1,0,0-1-1
690,6,90,Q,1.0,0.649,1,1,0,0-1-1
692,6,92,Q,0.0,0.559,0,0,1,1-0-0
693,6,93,Q,1.0,0.64,1,1,0,0-1-1
694,6,94,P,1.0,0.69,1,1,1,1-1-1
695,6,95,Q,1.0,0.58,0,0,0,0-0-0
696,6,96,P,1.0,0.926,1,1,1,1-1-1
697,6,97,P,1.0,0.9,0,1,1,1-1-0
698,6,98,P,1.0,1.209,0,1,1,1-1-0
699,6,99,Q,1.0,1.267,0,1,0,0-1-0
700,6,100,P,1.0,1.14,1,0,1,1-0-1
701,6,101,P,1.0,1.335,0,0,1,1-0-0
703,6,103,Q,1.0,0.877,1,0,0,0-0-1
704,6,104,P,1.0,1.255,0,1,1,1-1-0
705,6,105,Q,0.0,1.266,1,1,1,1-1-1
706,6,106,Q,0.0,1.158,1,1,1,1-1-1
707,6,107,P,0.0,1.407,0,1,0,0-1-0
708,6,108,Q,1.0,0.595,1,1,0,0-1-1
709,6,109,Q,1.0,0.608,0,0,0,0-0-0
710,6,110,P,1.0,1.173,1,0,1,1-0-1
711,6,111,Q,1.0,0.791,0,1,0,0-1-0
712,6,112,P,1.0,0.905,1,0,1,1-0-1
713,6,113,Q,1.0,0.637,0,1,0,0-1-0
714,6,114,Q,1.0,0.637,1,0,0,0-0-1
715,6,115,Q,1.0,0.595,0,1,0,0-1-0
716,6,116,P,1.0,1.155,0,0,1,1-0-0
717,6,117,P,1.0,1.016,0,1,1,1-1-0
718,6,118,Q,1.0,0.576,1,1,0,0-1-1
719,6,119,Q,1.0,0.557,1,0,0,0-0-1
720,6,120,P,1.0,1.35,0,0,1,1-0-0
722,6,122,P,1.0,0.849,1,0,1,1-0-1
723,6,123,Q,1.0,1.422,0,1,0,0-1-0
724,6,124,P,1.0,1.581,1,1,1,1-1-1
725,6,125,P,1.0,0.938,1,0,1,1-0-1
726,6,126,P,1.0,0.897,0,0,1,1-0-0
727,6,127,Q,1.0,0.671,0,0,0,0-0-0
728,6,128,Q,1.0,0.864,0,0,0,0-0-0
729,6,129,P,1.0,0.863,1,1,1,1-1-1
730,6,130,Q,1.0,1.035,0,1,0,0-1-0
731,6,131,Q,1.0,1.372,1,0,0,0-0-1
732,6,132,P,1.0,1.3,1,0,1,1-0-1
733,6,133,Q,1.0,0.556,0,1,0,0-1-0
734,6,134,Q,1.0,0.533,0,0,0,0-0-0
735,6,135,P,1.0,0.738,1,1,1,1-1-1
736,6,136,P,1.0,0.549,0,0,1,1-0-0
737,6,137,P,1.0,0.827,0,1,1,1-1-0
738,6,138,Q,1.0,0.724,0,1,0,0-1-0
739,6,139,Q,1.0,0.647,1,0,0,0-0-1
740,6,140,Q,1.0,0.571,1,0,0,0-0-1
741,6,141,Q,0.0,0.575,1,1,1,1-1-1
742,6,142,P,0.0,0.548,0,1,0,0-1-0
743,6,143,P,1.0,1.157,1,0,1,1-0-1
744,6,144,P,1.0,1.244,0,1,1,1-1-0
745,6,145,Q,1.0,0.55,0,1,0,0-1-0
746,6,146,Q,1.0,0.724,1,1,0,0-1-1
747,6,147,P,1.0,0.92,1,0,1,1-0-1
748,6,148,Q,1.0,0.645,0,0,0,0-0-0
749,6,149,P,1.0,1.615,1,0,1,1-0-1
750,6,150,P,1.0,1.511,0,0,1,1-0-0
751,6,151,P,1.0,1.397,0,0,1,1-0-0
752,6,152,Q,1.0,0.655,1,0,0,0-0-1
753,6,153,P,1.0,0.94,0,0,1,1-0-0
754,6,154,P,1.0,0.656,0,0,1,1-0-0
755,6,155,P,1.0,0.65,1,0,1,1-0-1
756,6,156,Q,1.0,0.647,0,1,0,0-1-0
757,6,157,Q,1.0,0.643,1,1,0,0-1-1
758,6,158,Q,1.0,0.671,1,1,0,0-1-1
759,6,159,P,1.0,0.562,0,0,1,1-0-0
760,6,160,Q,1.0,0.604,0,0,0,0-0-0
761,6,161,P,1.0,1.28,1,0,1,1-0-1
762,6,162,Q,1.0,0.917,0,0,0,0-0-0
763,6,163,P,1.0,0.474,1,0,1,1-0-1
764,6,164,Q,1.0,0.544,1,0,0,0-0-1
765,6,165,P,1.0,0.591,1,1,1,1-1-1
766,6,166,Q,1.0,0.871,0,0,0,0-0-0
767,6,167,P,1.0,0.614,0,1,1,1-1-0
768,6,168,P,1.0,1.172,0,1,1,1-1-0
769,6,169,Q,1.0,1.077,1,1,0,0-1-1
770,6,170,P,1.0,0.741,0,1,1,1-1-0
771,6,171,Q,0.0,0.724,1,0,1,1-0-1
772,6,172,Q,1.0,0.585,1,1,0,0-1-1
773,6,173,Q,1.0,0.576,0,0,0,0-0-0
774,6,174,P,1.0,1.223,1,1,1,1-1-1
775,6,175,Q,0.0,0.768,0,1,1,1-1-0
776,6,176,P,1.0,1.642,1,1,1,1-1-1
777,6,177,Q,1.0,1.495,1,1,0,0-1-1
778,6,178,P,1.0,1.874,0,0,1,1-0-0
779,6,179,P,1.0,1.161,0,0,1,1-0-0
780,6,180,Q,1.0,0.689,1,0,0,0-0-1
781,6,181,Q,1.0,1.23,1,0,0,0-0-1
782,6,182,Q,1.0,1.021,1,1,0,0-1-1
783,6,183,Q,0.0,1.832,0,1,1,1-1-0
784,6,184,Q,1.0,0.844,1,0,0,0-0-1
785,6,185,Q,0.0,1.238,0,1,1,1-1-0
787,6,187,Q,1.0,0.831,1,1,0,0-1-1
788,6,188,Q,1.0,1.328,0,1,0,0-1-0
789,6,189,P,1.0,1.005,0,0,1,1-0-0
790,6,190,Q,1.0,0.577,1,0,0,0-0-1
791,6,191,Q,1.0,0.62,1,1,0,0-1-1
792,6,192,Q,1.0,0.61,0,1,0,0-1-0
793,6,193,Q,0.0,0.652,1,1,1,1-1-1
794,6,194,P,1.0,0.601,0,1,1,1-1-0
795,6,195,P,1.0,0.889,0,1,1,1-1-0
796,6,196,Q,0.0,0.753,1,1,1,1-1-1
797,6,197,Q,1.0,0.807,0,0,0,0-0-0
798,6,198,P,1.0,0.614,0,0,1,1-0-0
799,6,199,P,1.0,0.608,0,0,1,1-0-0
800,6,200,Q,1.0,0.851,0,1,0,0-1-0
801,6,201,P,1.0,0.983,1,0,1,1-0-1
802,6,202,Q,0.0,0.775,0,0,1,1-0-0
803,6,203,P,1.0,0.834,1,0,1,1-0-1
804,6,204,P,1.0,1.853,0,1,1,1-1-0
805,6,205,P,1.0,1.062,1,1,1,1-1-1
806,7,1,P,1.0,0.871,1,0,1,1-0-1
808,7,3,Q,1.0,0.831,1,0,0,0-0-1
809,7,4,Q,1.0,0.806,0,0,0,0-0-0
810,7,5,P,1.0,0.616,0,1,1,1-1-0
811,7,6,P,1.0,0.944,1,1,1,1-1-1
812,7,7,Q,1.0,0.787,0,0,0,0-0-0
813,7,8,Q,1.0,0.896,1,0,0,0-0-1
814,7,9,Q,1.0,0.771,0,1,0,0-1-0
815,7,10,P,1.0,0.671,0,0,1,1-0-0
816,7,11,Q,1.0,0.704,0,1,0,0-1-0
817,7,12,Q,1.0,0.66,1,0,0,0-0-1
818,7,13,Q,1.0,0.517,0,1,0,0-1-0
819,7,14,P,1.0,0.713,1,1,1,1-1-1
820,7,15,Q,1.0,0.553,0,0,0,0-0-0
821,7,16,P,1.0,0.788,1,0,1,1-0-1
822,7,17,P,0.0,0.771,1,1,0,0-1-1
823,7,18,Q,1.0,0.603,0,0,0,0-0-0
824,7,19,P,1.0,0.711,1,1,1,1-1-1
825,7,20,P,1.0,0.66,0,1,1,1-1-0
826,7,21,P,1.0,0.594,1,0,1,1-0-1
827,7,22,Q,1.0,0.915,1,0,0,0-0-1
828,7,23,P,1.0,0.566,0,1,1,1-1-0
829,7,24,P,1.0,0.602,0,1,1,1-1-0
830,7,25,Q,1.0,0.619,1,1,0,0-1-1
831,7,26,P,1.0,0.65,0,1,1,1-1-0
832,7,27,Q,1.0,0.775,1,1,0,0-1-1
833,7,28,Q,1.0,0.684,1,1,0,0-1-1
834,7,29,Q,1.0,0.909,0,0,0,0-0-0
835,7,30,P,1.0,0.635,1,1,1,1-1-1
836,7,31,P,1.0,0.573,1,0,1,1-0-1
837,7,32,P,1.0,0.634,0,0,1,1-0-0
838,7,33,Q,1.0,0.493,1,1,0,0-1-1
839,7,34,P,1.0,0.752,0,1,1,1-1-0
840,7,35,Q,1.0,0.617,0,1,0,0-1-0
841,7,36,Q,1.0,0.591,0,1,0,0-1-0
842,7,37,Q,1.0,0.686,1,0,0,0-0-1
843,7,38,P,1.0,1.11,0,0,1,1-0-0
844,7,39,Q,1.0,0.819,1,0,0,0-0-1
845,7,40,P,1.0,0.645,0,0,1,1-0-0
846,7,41,Q,1.0,0.732,1,1,0,0-1-1
847,7,42,P,1.0,0.579,0,0,1,1-0-0
848,7,43,Q,0.0,0.888,1,1,1,1-1-1
849,7,44,P,1.0,0.781,1,0,1,1-0-1
850,7,45,Q,1.0,0.668,1,0,0,0-0-1
851,7,46,Q,1.0,0.802,0,0,0,0-0-0
852,7,47,Q,1.0,0.763,1,0,0,0-0-1
853,7,48,P,1.0,0.491,1,0,1,1-0-1
854,7,49,Q,1.0,0.527,1,1,0,0-1-1
855,7,50,P,1.0,0.778,0,0,1,1-0-0
856,7,51,Q,1.0,0.587,0,1,0,0-1-0
857,7,52,P,1.0,0.624,1,1,1,1-1-1
858,7,53,Q,1.0,0.848,0,0,0,0-0-0
859,7,54,Q,1.0,0.699,1,1,0,0-1-1
860,7,55,P,1.0,0.729,1,0,1,1-0-1
861,7,56,P,1.0,0.697,0,1,1,1-1-0
862,7,57,Q,1.0,0.627,0,1,0,0-1-0
863,7,58,Q,1.0,0.645,1,0,0,0-0-1
864,7,59,P,1.0,0.595,0,0,1,1-0-0
865,7,60,Q,0.0,0.542,1,1,1,1-1-1
866,7,61,Q,1.0,0.921,1,1,0,0-1-1
867,7,62,Q,1.0,0.823,0,1,0,0-1-0
868,7,63,P,1.0,0.577,1,0,1,1-0-1
869,7,64,Q,1.0,0.865,1,1,0,0-1-1
870,7,65,Q,1.0,1.124,0,0,0,0-0-0
871,7,66,Q,0.0,0.804,1,0,1,1-0-1
872,7,67,P,1.0,0.778,0,1,1,1-1-0
873,7,68,Q,1.0,0.817,0,0,0,0-0-0
874,7,69,P,1.0,0.628,1,1,1,1-1-1
875,7,70,P,1.0,1.096,0,0,1,1-0-0
876,7,71,Q,1.0,1.001,1,0,0,0-0-1
877,7,72,Q,1.0,1.141,0,0,0,0-0-0
878,7,73,P,1.0,0.584,1,0,1,1-0-1
879,7,74,P,0.0,1.072,0,0,0,0-0-0
880,7,75,Q,1.0,0.994,1,1,0,0-1-1
881,7,76,Q,1.0,0.833,0,0,0,0-0-0
882,7,77,P,1.0,1.057,1,1,1,1-1-1
883,7,78,P,1.0,0.597,0,1,1,1-1-0
884,7,79,P,1.0,0.649,0,1,1,1-1-0
885,7,80,Q,1.0,0.659,1,0,0,0-0-1
886,7,81,Q,1.0,0.759,0,0,0,0-0-0
887,7,82,P,1.0,0.512,1,1,1,1-1-1
888,7,83,Q,1.0,0.622,0,1,0,0-1-0
889,7,84,Q,1.0,0.705,1,0,0,0-0-1
890,7,85,P,1.0,0.608,1,1,1,1-1-1
891,7,86,Q,1.0,0.653,0,0,0,0-0-0
892,7,87,Q,1.0,0.765,0,1,0,0-1-0
893,7,88,Q,0.0,0.583,1,0,1,1-0-1
894,7,89,Q,1.0,0.704,1,1,0,0-1-1
895,7,90,P,0.0,0.999,1,1,0,0-1-1
896,7,91,P,1.0,1.424,0,0,1,1-0-0
897,7,92,P,1.0,0.606,0,0,1,1-0-0
898,7,93,Q,1.0,0.921,1,1,0,0-1-1
899,7,94,P,1.0,0.62,1,1,1,1-1-1
900,7,95,Q,1.0,0.744,0,0,0,0-0-0
901,7,96,P,1.0,0.563,1,1,1,1-1-1
902,7,97,P,1.0,0.514,0,1,1,1-1-0
903,7,98,P,1.0,0.675,0,1,1,1-1-0
904,7,99,Q,1.0,0.553,0,1,0,0-1-0
905,7,100,P,1.0,0.938,1,0,1,1-0-1
906,7,101,P,1.0,0.752,0,0,1,1-0-0
907,7,102,P,1.0,0.661,1,0,1,1-0-1
908,7,103,Q,1.0,0.851,1,0,0,0-0-1
909,7,104,P,1.0,0.906,0,1,1,1-1-0
910,7,105,P,1.0,0.657,1,1,1,1-1-1
911,7,106,P,1.0,1.264,1,1,1,1-1-1
912,7,107,P,0.0,0.785,0,1,0,0-1-0
913,7,108,Q,1.0,0.734,1,1,0,0-1-1
914,7,109,P,0.0,1.866,0,0,0,0-0-0
915,7,110,P,1.0,0.819,1,0,1,1-0-1
916,7,111,Q,1.0,1.091,0,1,0,0-1-0
917,7,112,P,1.0,0.919,1,0,1,1-0-1
918,7,113,Q,1.0,0.78,0,1,0,0-1-0
919,7,114,Q,1.0,0.936,1,0,0,0-0-1
920,7,115,Q,1.0,0.896,0,1,0,0-1-0
921,7,116,Q,0.0,1.476,0,0,1,1-0-0
922,7,117,P,1.0,0.651,0,1,1,1-1-0
923,7,118,Q,1.0,0.678,1,1,0,0-1-1
924,7,119,Q,1.0,0.583,1,0,0,0-0-1
925,7,120,P,1.0,0.61,0,0,1,1-0-0
926,7,121,P,1.0,0.785,0,1,1,1-1-0
927,7,122,P,1.0,0.65,1,0,1,1-0-1
928,7,123,P,0.0,0.78,0,1,0,0-1-0
929,7,124,Q,0.0,1.329,1,1,1,1-1-1
930,7,125,P,1.0,0.577,1,0,1,1-0-1
931,7,126,P,1.0,0.796,0,0,1,1-0-0
932,7,127,Q,1.0,1.302,0,0,0,0-0-0
933,7,128,Q,1.0,0.685,0,0,0,0-0-0
934,7,129,P,1.0,0.731,1,1,1,1-1-1
935,7,130,Q,1.0,0.747,0,1,0,0-1-0
936,7,131,Q,1.0,1.182,1,0,0,0-0-1
937,7,132,P,1.0,0.638,1,0,1,1-0-1
938,7,133,Q,1.0,0.682,0,1,0,0-1-0
939,7,134,Q,1.0,0.623,0,0,0,0-0-0
940,7,135,P,1.0,0.648,1,1,1,1-1-1
941,7,136,P,1.0,0.761,0,0,1,1-0-0
942,7,137,P,1.0,0.781,0,1,1,1-1-0
943,7,138,Q,1.0,0.758,0,1,0,0-1-0
944,7,139,Q,1.0,0.832,1,0,0,0-0-1
945,7,140,Q,1.0,0.917,1,0,0,0-0-1
946,7,141,P,1.0,0.818,1,1,1,1-1-1
947,7,142,P,0.0,0.74,0,1,0,0-1-0
948,7,143,P,1.0,0.88,1,0,1,1-0-1
949,7,144,P,1.0,0.721,0,1,1,1-1-0
950,7,145,Q,1.0,0.655,0,1,0,0-1-0
951,7,146,Q,1.0,1.09,1,1,0,0-1-1
952,7,147,P,1.0,0.786,1,0,1,1-0-1
953,7,148,Q,1.0,0.813,0,0,0,0-0-0
954,7,149,P,1.0,0.846,1,0,1,1-0-1
955,7,150,P,1.0,1.021,0,0,1,1-0-0
956,7,151,Q,0.0,0.75,0,0,1,1-0-0
957,7,152,Q,1.0,0.663,1,0,0,0-0-1
958,7,153,P,1.0,0.524,0,0,1,1-0-0
959,7,154,P,1.0,0.697,0,0,1,1-0-0
960,7,155,P,1.0,0.856,1,0,1,1-0-1
961,7,156,Q,1.0,0.667,0,1,0,0-1-0
962,7,157,Q,1.0,0.897,1,1,0,0-1-1
963,7,158,Q,1.0,0.627,1,1,0,0-1-1
964,7,159,P,1.0,0.733,0,0,1,1-0-0
965,7,160,Q,1.0,0.602,0,0,0,0-0-0
966,7,161,P,1.0,0.746,1,0,1,1-0-1
967,7,162,Q,1.0,0.586,0,0,0,0-0-0
968,7,163,P,1.0,0.768,1,0,1,1-0-1
969,7,164,Q,1.0,0.545,1,0,0,0-0-1
970,7,165,P,1.0,0.696,1,1,1,1-1-1
971,7,166,Q,1.0,0.68,0,0,0,0-0-0
972,7,167,P,1.0,0.801,0,1,1,1-1-0
973,7,168,P,1.0,0.84,0,1,1,1-1-0
974,7,169,Q,1.0,0.771,1,1,0,0-1-1
975,7,170,P,1.0,0.547,0,1,1,1-1-0
976,7,171,P,1.0,0.549,1,0,1,1-0-1
977,7,172,Q,1.0,0.661,1,1,0,0-1-1
978,7,173,Q,1.0,0.784,0,0,0,0-0-0
979,7,174,P,1.0,0.519,1,1,1,1-1-1
980,7,175,P,1.0,0.797,0,1,1,1-1-0
981,7,176,P,1.0,0.51,1,1,1,1-1-1
982,7,177,Q,1.0,0.703,1,1,0,0-1-1
983,7,178,P,1.0,0.552,0,0,1,1-0-0
984,7,179,P,1.0,0.951,0,0,1,1-0-0
985,7,180,Q,1.0,0.699,1,0,0,0-0-1
986,7,181,Q,1.0,0.747,1,0,0,0-0-1
987,7,182,Q,1.0,0.807,1,1,0,0-1-1
988,7,183,P,1.0,0.636,0,1,1,1-1-0
989,7,184,Q,1.0,0.725,1,0,0,0-0-1
990,7,185,P,1.0,0.813,0,1,1,1-1-0
991,7,186,P,1.0,0.643,1,1,1,1-1-1
992,7,187,Q,1.0,0.711,1,1,0,0-1-1
993,7,188,Q,1.0,0.831,0,1,0,0-1-0
994,7,189,P,1.0,0.505,0,0,1,1-0-0
995,7,190,Q,1.0,0.784,1,0,0,0-0-1
996,7,191,Q,1.0,0.741,1,1,0,0-1-1
997,7,192,Q,1.0,0.812,0,1,0,0-1-0
998,7,193,P,1.0,0.572,1,1,1,1-1-1
999,7,194,P,1.0,0.503,0,1,1,1-1-0
1000,7,195,P,1.0,0.802,0,1,1,1-1-0
1001,7,196,P,1.0,0.536,1,1,1,1-1-1
1002,7,197,Q,1.0,0.898,0,0,0,0-0-0
1003,7,198,P,1.0,0.586,0,0,1,1-0-0
1004,7,199,P,1.0,0.984,0,0,1,1-0-0
1005,7,200,Q,1.0,0.653,0,1,0,0-1-0
1006,7,201,P,0.0,0.83,1,0,0,0-0-1
1007,8,1,P,1.0,1.683,1,0,1,1-0-1
1008,8,2,P,0.0,1.413,1,0,0,0-0-1
1009,8,3,Q,1.0,0.876,1,0,0,0-0-1
1010,8,4,Q,1.0,0.846,0,0,0,0-0-0
1011,8,5,P,1.0,0.83,0,1,1,1-1-0
1012,8,6,P,1.0,1.295,1,1,1,1-1-1
1013,8,7,Q,1.0,0.793,0,0,0,0-0-0
1014,8,8,Q,1.0,1.21,1,0,0,0-0-1
1015,8,9,Q,1.0,1.087,0,1,0,0-1-0
1016,8,10,P,1.0,1.107,0,0,1,1-0-0
1017,8,11,Q,1.0,0.897,0,1,0,0-1-0
1018,8,12,Q,1.0,0.901,1,0,0,0-0-1
1019,8,13,Q,1.0,0.637,0,1,0,0-1-0
1020,8,14,P,1.0,0.841,1,1,1,1-1-1
1021,8,15,Q,1.0,0.692,0,0,0,0-0-0
1022,8,16,P,1.0,0.873,1,0,1,1-0-1
1023,8,17,Q,1.0,0.886,1,1,0,0-1-1
1024,8,18,Q,1.0,0.637,0,0,0,0-0-0
1025,8,19,P,1.0,0.742,1,1,1,1-1-1
1026,8,20,P,1.0,1.119,0,1,1,1-1-0
1027,8,21,P,1.0,0.991,1,0,1,1-0-1
1028,8,22,Q,1.0,0.936,1,0,0,0-0-1
1029,8,23,P,1.0,0.903,0,1,1,1-1-0
1030,8,24,P,1.0,0.858,0,1,1,1-1-0
1031,8,25,P,0.0,0.643,1,1,0,0-1-1
1032,8,26,P,1.0,0.619,0,1,1,1-1-0
1033,8,27,Q,1.0,0.745,1,1,0,0-1-1
1034,8,28,Q,1.0,0.768,1,1,0,0-1-1
1035,8,29,Q,1.0,0.953,0,0,0,0-0-0
1036,8,30,P,1.0,0.593,1,1,1,1-1-1
1037,8,31,P,1.0,0.895,1,0,1,1-0-1
1038,8,32,P,1.0,0.676,0,0,1,1-0-0
1039,8,33,Q,1.0,0.756,1,1,0,0-1-1
1040,8,34,P,1.0,0.934,0,1,1,1-1-0
1041,8,35,Q,1.0,1.13,0,1,0,0-1-0
1042,8,36,Q,1.0,0.989,0,1,0,0-1-0
1043,8,37,Q,1.0,0.896,1,0,0,0-0-1
1044,8,38,P,1.0,1.188,0,0,1,1-0-0
1045,8,39,Q,1.0,0.978,1,0,0,0-0-1
1046,8,40,P,1.0,0.72,0,0,1,1-0-0
1047,8,41,Q,1.0,0.73,1,1,0,0-1-1
1048,8,42,P,1.0,0.61,0,0,1,1-0-0
1049,8,43,P,1.0,0.805,1,1,1,1-1-1
1050,8,44,P,1.0,0.964,1,0,1,1-0-1
1051,8,45,Q,1.0,0.778,1,0,0,0-0-1
1052,8,46,Q,1.0,1.014,0,0,0,0-0-0
1053,8,47,Q,1.0,0.739,1,0,0,0-0-1
1054,8,48,P,1.0,0.635,1,0,1,1-0-1
1055,8,49,Q,1.0,0.844,1,1,0,0-1-1
1056,8,50,P,1.0,0.635,0,0,1,1-0-0
1057,8,51,Q,1.0,0.701,0,1,0,0-1-0
1058,8,52,P,1.0,0.584,1,1,1,1-1-1
1059,8,53,Q,1.0,0.699,0,0,0,0-0-0
1060,8,54,Q,1.0,0.71,1,1,0,0-1-1
1061,8,55,P,1.0,0.883,1,0,1,1-0-1
1062,8,56,Q,0.0,0.57,0,1,1,1-1-0
1063,8,57,Q,1.0,0.594,0,1,0,0-1-0
1064,8,58,Q,1.0,0.642,1,0,0,0-0-1
1065,8,59,P,1.0,0.591,0,0,1,1-0-0
1066,8,60,Q,0.0,0.72,1,1,1,1-1-1
1068,8,62,Q,1.0,0.662,0,1,0,0-1-0
1069,8,63,P,1.0,0.951,1,0,1,1-0-1
1070,8,64,P,0.0,1.2,1,1,0,0-1-1
1071,8,65,P,0.0,1.532,0,0,0,0-0-0
1072,8,66,P,1.0,1.565,1,0,1,1-0-1
1073,8,67,P,1.0,1.135,0,1,1,1-1-0
1074,8,68,Q,1.0,1.142,0,0,0,0-0-0
1075,8,69,P,1.0,0.741,1,1,1,1-1-1
1076,8,70,P,1.0,1.299,0,0,1,1-0-0
1077,8,71,Q,1.0,1.145,1,0,0,0-0-1
1078,8,72,Q,1.0,0.779,0,0,0,0-0-0
1079,8,73,P,1.0,0.711,1,0,1,1-0-1
1080,8,74,P,0.0,1.194,0,0,0,0-0-0
1081,8,75,Q,1.0,1.087,1,1,0,0-1-1
1082,8,76,Q,1.0,0.959,0,0,0,0-0-0
1083,8,77,P,1.0,1.038,1,1,1,1-1-1
1084,8,78,P,1.0,0.994,0,1,1,1-1-0
1085,8,79,P,1.0,0.648,0,1,1,1-1-0
1086,8,80,Q,1.0,1.405,1,0,0,0-0-1
1087,8,81,Q,1.0,0.868,0,0,0,0-0-0
1088,8,82,P,1.0,0.603,1,1,1,1-1-1
1089,8,83,Q,1.0,1.126,0,1,0,0-1-0
1090,8,84,Q,1.0,1.499,1,0,0,0-0-1
1091,8,85,P,1.0,0.66,1,1,1,1-1-1
1093,8,87,P,0.0,1.129,0,1,0,0-1-0
1094,8,88,P,1.0,0.758,1,0,1,1-0-1
1095,8,89,Q,1.0,1.035,1,1,0,0-1-1
1096,8,90,P,0.0,0.57,1,1,0,0-1-1
1097,8,91,P,1.0,1.327,0,0,1,1-0-0
1098,8,92,P,1.0,0.599,0,0,1,1-0-0
1099,8,93,Q,1.0,0.919,1,1,0,0-1-1
1100,8,94,P,1.0,0.598,1,1,1,1-1-1
1101,8,95,Q,1.0,0.652,0,0,0,0-0-0
1102,8,96,P,1.0,0.712,1,1,1,1-1-1
1103,8,97,P,1.0,0.581,0,1,1,1-1-0
1104,8,98,P,1.0,1.035,0,1,1,1-1-0
1105,8,99,Q,1.0,0.771,0,1,0,0-1-0
1106,8,100,P,1.0,0.72,1,0,1,1-0-1
1107,8,101,P,1.0,0.722,0,0,1,1-0-0
1108,8,102,P,1.0,0.622,1,0,1,1-0-1
1109,8,103,Q,1.0,0.741,1,0,0,0-0-1
1110,8,104,P,1.0,0.7,0,1,1,1-1-0
1111,8,105,P,1.0,0.772,1,1,1,1-1-1
1112,8,106,P,1.0,0.623,1,1,1,1-1-1
1113,8,107,P,0.0,0.654,0,1,0,0-1-0
1114,8,108,Q,1.0,0.752,1,1,0,0-1-1
1115,8,109,Q,1.0,1.007,0,0,0,0-0-0
1116,8,110,P,1.0,0.685,1,0,1,1-0-1
1117,8,111,Q,1.0,1.278,0,1,0,0-1-0
1118,8,112,Q,0.0,0.784,1,0,1,1-0-1
1119,8,113,Q,1.0,0.762,0,1,0,0-1-0
1120,8,114,Q,1.0,1.552,1,0,0,0-0-1
1121,8,115,Q,1.0,0.986,0,1,0,0-1-0
1122,8,116,P,1.0,0.744,0,0,1,1-0-0
1123,8,117,P,1.0,0.579,0,1,1,1-1-0
1125,8,119,Q,1.0,0.848,1,0,0,0-0-1
1126,8,120,P,1.0,0.958,0,0,1,1-0-0
1127,8,121,Q,0.0,1.003,0,1,1,1-1-0
1128,8,122,P,1.0,0.63,1,0,1,1-0-1
1129,8,123,Q,1.0,0.876,0,1,0,0-1-0
1130,8,124,P,1.0,0.885,1,1,1,1-1-1
1131,8,125,P,1.0,0.774,1,0,1,1-0-1
1132,8,126,P,1.0,0.877,0,0,1,1-0-0
1133,8,127,Q,1.0,1.48,0,0,0,0-0-0
1134,8,128,Q,1.0,0.819,0,0,0,0-0-0
1135,8,129,P,1.0,0.708,1,1,1,1-1-1
1136,8,130,Q,1.0,1.09,0,1,0,0-1-0
1137,8,131,P,0.0,1.162,1,0,0,0-0-1
1138,8,132,P,1.0,0.806,1,0,1,1-0-1
1139,8,133,Q,1.0,0.683,0,1,0,0-1-0
1140,8,134,Q,1.0,0.777,0,0,0,0-0-0
1141,8,135,P,1.0,0.836,1,1,1,1-1-1
1142,8,136,P,1.0,0.877,0,0,1,1-0-0
1143,8,137,P,1.0,0.682,0,1,1,1-1-0
1144,8,138,Q,1.0,0.675,0,1,0,0-1-0
1145,8,139,Q,1.0,1.189,1,0,0,0-0-1
1146,8,140,Q,1.0,1.081,1,0,0,0-0-1
1147,8,141,P,1.0,0.623,1,1,1,1-1-1
1148,8,142,Q,1.0,0.929,0,1,0,0-1-0
1149,8,143,P,1.0,0.901,1,0,1,1-0-1
1150,8,144,P,1.0,0.683,0,1,1,1-1-0
1151,8,145,Q,1.0,0.724,0,1,0,0-1-0
1152,8,146,P,0.0,1.161,1,1,0,0-1-1
1153,8,147,P,1.0,0.629,1,0,1,1-0-1
1154,8,148,Q,1.0,0.874,0,0,0,0-0-0
1155,8,149,P,1.0,1.084,1,0,1,1-0-1
1156,8,150,P,1.0,0.925,0,0,1,1-0-0
1157,8,151,Q,0.0,0.887,0,0,1,1-0-0
1158,8,152,Q,1.0,0.998,1,0,0,0-0-1
1159,8,153,P,1.0,0.726,0,0,1,1-0-0
1160,8,154,P,1.0,0.652,0,0,1,1-0-0
1161,8,155,P,1.0,0.722,1,0,1,1-0-1
1162,8,156,Q,1.0,0.749,0,1,0,0-1-0
1163,8,157,Q,1.0,0.711,1,1,0,0-1-1
1164,8,158,P,0.0,0.618,1,1,0,0-1-1
1165,8,159,P,1.0,0.621,0,0,1,1-0-0
1166,8,160,Q,1.0,0.755,0,0,0,0-0-0
1167,8,161,P,1.0,0.74,1,0,1,1-0-1
1168,8,162,Q,1.0,0.78,0,0,0,0-0-0
1169,8,163,P,1.0,0.82,1,0,1,1-0-1
1170,8,164,Q,1.0,0.866,1,0,0,0-0-1
1171,8,165,P,1.0,0.733,1,1,1,1-1-1
1172,8,166,Q,1.0,1.285,0,0,0,0-0-0
1173,8,167,P,1.0,0.627,0,1,1,1-1-0
1174,8,168,P,1.0,0.619,0,1,1,1-1-0
1175,8,169,P,0.0,1.221,1,1,0,0-1-1
1176,8,170,P,1.0,0.546,0,1,1,1-1-0
1177,8,171,P,1.0,1.218,1,0,1,1-0-1
1178,8,172,P,0.0,0.633,1,1,0,0-1-1
1179,8,173,Q,1.0,0.671,0,0,0,0-0-0
1180,8,174,P,1.0,0.648,1,1,1,1-1-1
1181,8,175,P,1.0,1.29,0,1,1,1-1-0
1182,8,176,P,1.0,0.805,1,1,1,1-1-1
1183,8,177,Q,1.0,1.796,1,1,0,0-1-1
1184,8,178,P,1.0,0.59,0,0,1,1-0-0
1185,8,179,P,1.0,0.746,0,0,1,1-0-0
1186,8,180,Q,1.0,0.741,1,0,0,0-0-1
1187,8,181,P,0.0,1.554,1,0,0,0-0-1
1188,8,182,Q,1.0,1.612,1,1,0,0-1-1
1189,8,183,P,1.0,0.777,0,1,1,1-1-0
1190,8,184,Q,1.0,1.191,1,0,0,0-0-1
1191,8,185,P,1.0,0.681,0,1,1,1-1-0
1192,8,186,P,1.0,0.585,1,1,1,1-1-1
1193,8,187,Q,1.0,0.89,1,1,0,0-1-1
1194,8,188,P,0.0,1.205,0,1,0,0-1-0
1195,8,189,P,1.0,0.986,0,0,1,1-0-0
1196,8,190,Q,1.0,1.478,1,0,0,0-0-1
1197,8,191,Q,1.0,1.014,1,1,0,0-1-1
1198,8,192,Q,1.0,1.246,0,1,0,0-1-0
1199,8,193,P,1.0,0.746,1,1,1,1-1-1
1200,8,194,P,1.0,0.719,0,1,1,1-1-0
1201,8,195,Q,0.0,1.121,0,1,1,1-1-0
1202,8,196,P,1.0,0.894,1,1,1,1-1-1
1203,8,197,Q,1.0,1.169,0,0,0,0-0-0
1204,8,198,P,1.0,1.024,0,0,1,1-0-0
1205,8,199,P,1.0,0.784,0,0,1,1-0-0
1206,8,200,Q,1.0,0.868,0,1,0,0-1-0
1207,8,201,P,0.0,0.736,1,1,0,0-1-1
1208,8,202,P,0.0,0.835,0,0,0,0-0-0
1209,8,203,Q,1.0,1.278,1,1,0,0-1-1
1210,13,1,P,1.0,0.836,1,0,1,1-0-1
1211,13,2,P,0.0,1.066,1,0,0,0-0-1
1212,13,3,Q,1.0,0.964,1,0,0,0-0-1
1213,13,4,Q,1.0,0.853,0,0,0,0-0-0
1214,13,5,P,1.0,0.823,0,1,1,1-1-0
1215,13,6,Q,0.0,0.93,1,1,1,1-1-1
1216,13,7,Q,1.0,0.768,0,0,0,0-0-0
1217,13,8,Q,1.0,0.702,1,0,0,0-0-1
1218,13,9,Q,1.0,0.984,0,1,0,0-1-0
1219,13,10,P,1.0,0.821,0,0,1,1-0-0
1220,13,11,Q,1.0,0.722,0,1,0,0-1-0
1221,13,12,Q,1.0,0.743,1,0,0,0-0-1
1222,13,13,Q,1.0,0.572,0,1,0,0-1-0
1223,13,14,P,1.0,0.761,1,1,1,1-1-1
1224,13,15,Q,1.0,1.057,0,0,0,0-0-0
1225,13,16,P,1.0,1.406,1,0,1,1-0-1
1226,13,17,Q,1.0,1.968,1,1,0,0-1-1
1227,13,18,Q,1.0,0.844,0,0,0,0-0-0
1228,13,19,P,1.0,0.729,1,1,1,1-1-1
1229,13,20,P,1.0,0.743,0,1,1,1-1-0
1230,13,21,P,1.0,0.875,1,0,1,1-0-1
1231,13,22,Q,1.0,0.921,1,0,0,0-0-1
1232,13,23,P,1.0,0.618,0,1,1,1-1-0
1233,13,24,P,1.0,0.702,0,1,1,1-1-0
1234,13,25,Q,1.0,0.732,1,1,0,0-1-1
1235,13,26,P,1.0,0.567,0,1,1,1-1-0
1236,13,27,P,0.0,0.713,1,1,0,0-1-1
1237,13,28,Q,1.0,0.881,1,1,0,0-1-1
1238,13,29,Q,1.0,0.835,0,0,0,0-0-0
1239,13,30,P,1.0,0.77,1,1,1,1-1-1
1240,13,31,P,1.0,1.277,1,0,1,1-0-1
1241,13,32,P,1.0,1.498,0,0,1,1-0-0
1242,13,33,Q,1.0,0.976,1,1,0,0-1-1
1243,13,34,P,1.0,0.799,0,1,1,1-1-0
1244,13,35,Q,1.0,0.723,0,1,0,0-1-0
1245,13,36,Q,1.0,0.64,0,1,0,0-1-0
1246,13,37,Q,1.0,0.728,1,0,0,0-0-1
1247,13,38,P,1.0,0.812,0,0,1,1-0-0
1248,13,39,Q,1.0,0.704,1,0,0,0-0-1
1249,13,40,P,1.0,1.075,0,0,1,1-0-0
1250,13,41,Q,1.0,0.572,1,1,0,0-1-1
1251,13,42,P,1.0,0.512,0,0,1,1-0-0
1252,13,43,P,1.0,0.836,1,1,1,1-1-1
1253,13,44,P,1.0,0.881,1,0,1,1-0-1
1254,13,45,Q,1.0,0.593,1,0,0,0-0-1
1255,13,46,Q,1.0,0.896,0,0,0,0-0-0
1256,13,47,Q,1.0,0.574,1,0,0,0-0-1
1257,13,48,P,1.0,0.839,1,0,1,1-0-1
1258,13,49,Q,1.0,0.806,1,1,0,0-1-1
1259,13,50,P,1.0,0.648,0,0,1,1-0-0
1260,13,51,Q,1.0,0.564,0,1,0,0-1-0
1261,13,52,P,1.0,0.73,1,1,1,1-1-1
1262,13,53,Q,1.0,0.97,0,0,0,0-0-0
1263,13,54,Q,1.0,0.565,1,1,0,0-1-1
1264,13,55,P,1.0,0.761,1,0,1,1-0-1
1265,13,56,P,1.0,0.847,0,1,1,1-1-0
1266,13,57,Q,1.0,0.622,0,1,0,0-1-0
1267,13,58,Q,1.0,0.557,1,0,0,0-0-1
1268,13,59,P,1.0,0.62,0,0,1,1-0-0
1269,13,60,Q,0.0,0.742,1,1,1,1-1-1
1270,13,61,Q,1.0,0.667,1,1,0,0-1-1
1271,13,62,Q,1.0,0.567,0,1,0,0-1-0
1272,13,63,P,1.0,0.372,1,0,1,1-0-1
1273,13,64,Q,1.0,0.502,1,1,0,0-1-1
1274,13,65,Q,1.0,0.722,0,0,0,0-0-0
1275,13,66,Q,0.0,0.698,1,0,1,1-0-1
1276,13,67,P,1.0,0.676,0,1,1,1-1-0
1277,13,68,Q,1.0,0.868,0,0,0,0-0-0
1278,13,69,P,1.0,0.818,1,1,1,1-1-1
1279,13,70,P,1.0,1.078,0,0,1,1-0-0
1280,13,71,Q,1.0,0.556,1,0,0,0-0-1
1281,13,72,Q,1.0,1.332,0,0,0,0-0-0
1282,13,73,P,1.0,0.962,1,0,1,1-0-1
1283,13,74,Q,1.0,1.355,0,0,0,0-0-0
1284,13,75,Q,1.0,0.958,1,1,0,0-1-1
1285,13,76,Q,1.0,0.709,0,0,0,0-0-0
1286,13,77,P,1.0,0.779,1,1,1,1-1-1
1287,13,78,P,1.0,0.935,0,1,1,1-1-0
1288,13,79,P,1.0,0.818,0,1,1,1-1-0
1289,13,80,Q,1.0,1.032,1,0,0,0-0-1
1290,13,81,Q,1.0,0.704,0,0,0,0-0-0
1291,13,82,P,1.0,0.779,1,1,1,1-1-1
1292,13,83,Q,1.0,0.91,0,1,0,0-1-0
1293,13,84,Q,1.0,0.592,1,0,0,0-0-1
1294,13,85,P,1.0,0.645,1,1,1,1-1-1
1295,13,86,Q,1.0,0.757,0,0,0,0-0-0
1296,13,87,Q,1.0,0.789,0,1,0,0-1-0
1298,13,89,Q,1.0,0.762,1,1,0,0-1-1
1299,13,90,Q,1.0,0.522,1,1,0,0-1-1
1300,13,91,P,1.0,0.858,0,0,1,1-0-0
1301,13,92,Q,0.0,0.755,0,0,1,1-0-0
1302,13,93,Q,1.0,0.638,1,1,0,0-1-1
1303,13,94,P,1.0,0.584,1,1,1,1-1-1
1304,13,95,Q,1.0,0.63,0,0,0,0-0-0
1305,13,96,P,1.0,0.74,1,1,1,1-1-1
1306,13,97,P,1.0,0.667,0,1,1,1-1-0
1307,13,98,P,1.0,0.714,0,1,1,1-1-0
1308,13,99,Q,1.0,0.767,0,1,0,0-1-0
1309,13,100,P,1.0,1.102,1,0,1,1-0-1
1310,13,101,Q,0.0,0.566,0,0,1,1-0-0
1311,13,102,P,1.0,0.59,1,0,1,1-0-1
1312,13,103,Q,1.0,0.739,1,0,0,0-0-1
1313,13,104,P,1.0,0.795,0,1,1,1-1-0
1314,13,105,Q,0.0,0.736,1,1,1,1-1-1
1315,13,106,Q,0.0,0.689,1,1,1,1-1-1
1316,13,107,Q,1.0,0.718,0,1,0,0-1-0
1317,13,108,Q,1.0,0.558,1,1,0,0-1-1
1318,13,109,Q,1.0,0.727,0,0,0,0-0-0
1319,13,110,Q,0.0,0.72,1,0,1,1-0-1
1320,13,111,Q,1.0,0.578,0,1,0,0-1-0
1321,13,112,P,1.0,0.659,1,0,1,1-0-1
1322,13,113,Q,1.0,0.775,0,1,0,0-1-0
1323,13,114,Q,1.0,0.505,1,0,0,0-0-1
1324,13,115,Q,1.0,0.529,0,1,0,0-1-0
1325,13,116,P,1.0,0.75,0,0,1,1-0-0
1326,13,117,P,1.0,0.663,0,1,1,1-1-0
1327,13,118,Q,1.0,0.474,1,1,0,0-1-1
1328,13,119,Q,1.0,0.61,1,0,0,0-0-1
1329,13,120,P,1.0,0.768,0,0,1,1-0-0
1330,13,121,Q,0.0,0.899,0,1,1,1-1-0
1331,13,122,P,1.0,0.812,1,0,1,1-0-1
1332,13,123,Q,1.0,0.771,0,1,0,0-1-0
1333,13,124,Q,0.0,0.944,1,1,1,1-1-1
1334,13,125,P,1.0,0.664,1,0,1,1-0-1
1335,13,126,P,1.0,0.949,0,0,1,1-0-0
1336,13,127,Q,1.0,0.757,0,0,0,0-0-0
1337,13,128,Q,1.0,0.724,0,0,0,0-0-0
1338,13,129,Q,0.0,0.718,1,1,1,1-1-1
1339,13,130,Q,1.0,0.678,0,1,0,0-1-0
1340,13,131,Q,1.0,0.997,1,0,0,0-0-1
1341,13,132,P,1.0,0.826,1,0,1,1-0-1
1342,13,133,Q,1.0,0.545,0,1,0,0-1-0
1343,13,134,Q,1.0,0.627,0,0,0,0-0-0
1344,13,135,P,1.0,0.543,1,1,1,1-1-1
1345,13,136,P,1.0,0.618,0,0,1,1-0-0
1346,13,137,P,1.0,0.892,0,1,1,1-1-0
1347,13,138,Q,1.0,0.545,0,1,0,0-1-0
1348,13,139,Q,1.0,0.533,1,0,0,0-0-1
1349,13,140,Q,1.0,0.552,1,0,0,0-0-1
1350,13,141,Q,0.0,0.518,1,1,1,1-1-1
1351,13,142,Q,1.0,0.666,0,1,0,0-1-0
1352,13,143,P,1.0,0.618,1,0,1,1-0-1
1353,13,144,P,1.0,0.92,0,1,1,1-1-0
1354,13,145,Q,1.0,0.876,0,1,0,0-1-0
1355,13,146,Q,1.0,0.792,1,1,0,0-1-1
1356,13,147,P,1.0,0.985,1,0,1,1-0-1
1357,13,148,Q,1.0,0.7,0,0,0,0-0-0
1358,13,149,P,1.0,1.415,1,0,1,1-0-1
1359,13,150,P,1.0,0.967,0,0,1,1-0-0
1360,13,151,Q,0.0,0.66,0,0,1,1-0-0
1361,13,152,Q,1.0,0.646,1,0,0,0-0-1
1362,13,153,P,1.0,0.865,0,0,1,1-0-0
1363,13,154,P,1.0,0.543,0,0,1,1-0-0
1364,13,155,P,1.0,0.577,1,0,1,1-0-1
1365,13,156,Q,1.0,0.822,0,1,0,0-1-0
1366,13,157,Q,1.0,0.673,1,1,0,0-1-1
1367,13,158,Q,1.0,0.94,1,1,0,0-1-1
1368,13,159,P,1.0,0.696,0,0,1,1-0-0
1369,13,160,Q,1.0,0.767,0,0,0,0-0-0
1370,13,161,Q,0.0,0.641,1,0,1,1-0-1
1371,13,162,Q,1.0,0.623,0,0,0,0-0-0
1372,13,163,P,1.0,0.968,1,0,1,1-0-1
1373,13,164,Q,1.0,0.572,1,0,0,0-0-1
1374,13,165,P,1.0,0.858,1,1,1,1-1-1
1375,13,166,Q,1.0,0.838,0,0,0,0-0-0
1376,13,167,P,1.0,0.633,0,1,1,1-1-0
1377,13,168,P,1.0,0.754,0,1,1,1-1-0
1378,13,169,Q,1.0,0.92,1,1,0,0-1-1
1379,13,170,P,1.0,0.644,0,1,1,1-1-0
1380,13,171,P,1.0,0.712,1,0,1,1-0-1
1381,13,172,Q,1.0,0.71,1,1,0,0-1-1
1382,13,173,Q,1.0,0.728,0,0,0,0-0-0
1383,13,174,P,1.0,1.029,1,1,1,1-1-1
1384,13,175,Q,0.0,0.785,0,1,1,1-1-0
1386,13,177,Q,1.0,0.854,1,1,0,0-1-1
1387,13,178,Q,0.0,0.783,0,0,1,1-0-0
1388,13,179,P,1.0,0.815,0,0,1,1-0-0
1389,13,180,Q,1.0,0.909,1,0,0,0-0-1
1390,13,181,Q,1.0,0.59,1,0,0,0-0-1
1391,13,182,Q,1.0,1.174,1,1,0,0-1-1
1392,13,183,P,1.0,1.408,0,1,1,1-1-0
1393,13,184,Q,1.0,0.531,1,0,0,0-0-1
1394,13,185,P,1.0,0.922,0,1,1,1-1-0
1395,13,186,P,1.0,0.799,1,1,1,1-1-1
1396,13,187,Q,1.0,0.635,1,1,0,0-1-1
1397,13,188,Q,1.0,0.806,0,1,0,0-1-0
1398,13,189,P,1.0,0.862,0,0,1,1-0-0
1399,13,190,Q,1.0,0.883,1,0,0,0-0-1
1400,13,191,Q,1.0,0.883,1,1,0,0-1-1
1401,13,192,Q,1.0,0.717,0,1,0,0-1-0
1402,13,193,Q,0.0,0.658,1,1,1,1-1-1
1403,13,194,P,1.0,0.838,0,1,1,1-1-0
1404,13,195,Q,0.0,0.736,0,1,1,1-1-0
1405,13,196,Q,0.0,1.07,1,1,1,1-1-1
1406,13,197,Q,1.0,0.819,0,0,0,0-0-0
1407,13,198,P,1.0,0.861,0,0,1,1-0-0
1408,13,199,P,1.0,0.691,0,0,1,1-0-0
1409,13,200,Q,1.0,1.436,0,1,0,0-1-0
1410,13,201,P,1.0,0.809,1,0,1,1-0-1
1411,13,202,P,1.0,0.947,1,1,1,1-1-1
1412,14,1,P,1.0,1.611,1,0,1,1-0-1
1413,14,2,Q,1.0,1.382,1,0,0,0-0-1
1415,14,4,Q,1.0,1.329,0,0,0,0-0-0
1416,14,5,P,1.0,1.32,0,1,1,1-1-0
1417,14,6,P,1.0,1.419,1,1,1,1-1-1
1418,14,7,Q,1.0,1.114,0,0,0,0-0-0
1419,14,8,Q,1.0,1.085,1,0,0,0-0-1
1420,14,9,Q,1.0,0.876,0,1,0,0-1-0
1421,14,10,P,1.0,1.156,0,0,1,1-0-0
1422,14,11,Q,1.0,0.879,0,1,0,0-1-0
1423,14,12,Q,1.0,0.752,1,0,0,0-0-1
1424,14,13,Q,1.0,1.035,0,1,0,0-1-0
1425,14,14,P,1.0,1.361,1,1,1,1-1-1
1426,14,15,Q,1.0,0.962,0,0,0,0-0-0
1427,14,16,P,1.0,1.956,1,0,1,1-0-1
1428,14,17,Q,1.0,1.574,1,1,0,0-1-1
1429,14,18,Q,1.0,0.824,0,0,0,0-0-0
1430,14,19,P,1.0,0.83,1,1,1,1-1-1
1431,14,20,Q,0.0,0.841,0,1,1,1-1-0
1432,14,21,P,1.0,1.416,1,0,1,1-0-1
1433,14,22,Q,1.0,1.016,1,0,0,0-0-1
1434,14,23,P,1.0,1.007,0,1,1,1-1-0
1435,14,24,P,1.0,1.559,0,1,1,1-1-0
1436,14,25,Q,1.0,0.906,1,1,0,0-1-1
1437,14,26,Q,0.0,0.883,0,1,1,1-1-0
1438,14,27,Q,1.0,0.94,1,1,0,0-1-1
1439,14,28,Q,1.0,1.178,1,1,0,0-1-1
1440,14,29,Q,1.0,0.937,0,0,0,0-0-0
1441,14,30,P,1.0,0.723,1,1,1,1-1-1
1442,14,31,P,1.0,0.87,1,0,1,1-0-1
1443,14,32,P,1.0,1.971,0,0,1,1-0-0
1444,14,33,Q,1.0,1.022,1,1,0,0-1-1
1445,14,34,Q,0.0,1.461,0,1,1,1-1-0
1446,14,35,Q,1.0,0.773,0,1,0,0-1-0
1447,14,36,Q,1.0,0.978,0,1,0,0-1-0
1448,14,37,Q,1.0,0.741,1,0,0,0-0-1
1449,14,38,P,1.0,1.012,0,0,1,1-0-0
1450,14,39,Q,1.0,0.781,1,0,0,0-0-1
1451,14,40,Q,0.0,1.48,0,0,1,1-0-0
1452,14,41,Q,1.0,0.842,1,1,0,0-1-1
1453,14,42,P,1.0,1.228,0,0,1,1-0-0
1454,14,43,P,1.0,1.33,1,1,1,1-1-1
1455,14,44,P,1.0,1.311,1,0,1,1-0-1
1456,14,45,Q,1.0,1.095,1,0,0,0-0-1
1457,14,46,Q,1.0,0.82,0,0,0,0-0-0
1458,14,47,Q,1.0,0.97,1,0,0,0-0-1
1459,14,48,P,1.0,1.238,1,0,1,1-0-1
1460,14,49,Q,1.0,0.634,1,1,0,0-1-1
1461,14,50,P,1.0,1.214,0,0,1,1-0-0
1462,14,51,Q,1.0,0.912,0,1,0,0-1-0
1463,14,52,P,1.0,1.316,1,1,1,1-1-1
1464,14,53,Q,1.0,0.844,0,0,0,0-0-0
1465,14,54,Q,1.0,0.813,1,1,0,0-1-1
1466,14,55,P,1.0,1.379,1,0,1,1-0-1
1467,14,56,Q,0.0,0.811,0,1,1,1-1-0
1468,14,57,Q,1.0,0.909,0,1,0,0-1-0
1469,14,58,Q,1.0,0.951,1,0,0,0-0-1
1470,14,59,P,1.0,0.823,0,0,1,1-0-0
1471,14,60,P,1.0,1.125,1,1,1,1-1-1
1472,14,61,Q,1.0,1.591,1,1,0,0-1-1
1473,14,62,Q,1.0,0.759,0,1,0,0-1-0
1474,14,63,P,1.0,0.9,1,0,1,1-0-1
1475,14,64,Q,1.0,0.767,1,1,0,0-1-1
1476,14,65,Q,1.0,0.955,0,0,0,0-0-0
1477,14,66,P,1.0,1.099,1,0,1,1-0-1
1478,14,67,P,1.0,1.066,0,1,1,1-1-0
1479,14,68,Q,1.0,0.851,0,0,0,0-0-0
1480,14,69,P,1.0,1.161,1,1,1,1-1-1
1481,14,70,P,1.0,1.436,0,0,1,1-0-0
1482,14,71,Q,1.0,1.013,1,0,0,0-0-1
1483,14,72,Q,1.0,0.835,0,0,0,0-0-0
1484,14,73,P,1.0,0.938,1,0,1,1-0-1
1485,14,74,Q,1.0,0.923,0,0,0,0-0-0
1486,14,75,Q,1.0,1.42,1,1,0,0-1-1
1487,14,76,Q,1.0,0.866,0,0,0,0-0-0
1488,14,77,P,1.0,1.276,1,1,1,1-1-1
1489,14,78,P,1.0,0.766,0,1,1,1-1-0
1490,14,79,P,1.0,0.698,0,1,1,1-1-0
1491,14,80,Q,1.0,0.704,1,0,0,0-0-1
1492,14,81,Q,1.0,0.913,0,0,0,0-0-0
1493,14,82,P,1.0,0.75,1,1,1,1-1-1
1494,14,83,Q,1.0,1.278,0,1,0,0-1-0
1495,14,84,Q,1.0,0.919,1,0,0,0-0-1
1496,14,85,P,1.0,0.749,1,1,1,1-1-1
1497,14,86,Q,1.0,1.012,0,0,0,0-0-0
1498,14,87,Q,1.0,0.819,0,1,0,0-1-0
1499,14,88,P,1.0,0.724,1,0,1,1-0-1
1500,14,89,Q,1.0,0.946,1,1,0,0-1-1
1501,14,90,Q,1.0,1.463,1,1,0,0-1-1
1502,14,91,P,1.0,0.991,0,0,1,1-0-0
1503,14,92,P,1.0,1.025,0,0,1,1-0-0
1504,14,93,Q,1.0,0.774,1,1,0,0-1-1
1505,14,94,P,1.0,1.062,1,1,1,1-1-1
1506,14,95,Q,1.0,0.859,0,0,0,0-0-0
1507,14,96,P,1.0,0.882,1,1,1,1-1-1
1508,14,97,Q,0.0,1.712,0,1,1,1-1-0
1509,14,98,Q,0.0,0.979,0,1,1,1-1-0
1510,14,99,Q,1.0,0.924,0,1,0,0-1-0
1511,14,100,P,1.0,1.53,1,0,1,1-0-1
1512,14,101,P,1.0,0.956,0,0,1,1-0-0
1513,14,102,P,1.0,0.804,1,0,1,1-0-1
1514,14,103,Q,1.0,0.754,1,0,0,0-0-1
1515,14,104,P,1.0,1.34,0,1,1,1-1-0
1516,14,105,P,1.0,1.118,1,1,1,1-1-1
1517,14,106,P,1.0,1.271,1,1,1,1-1-1
1518,14,107,Q,1.0,0.933,0,1,0,0-1-0
1519,14,108,Q,1.0,0.972,1,1,0,0-1-1
1520,14,109,Q,1.0,1.345,0,0,0,0-0-0
1521,14,110,P,1.0,0.934,1,0,1,1-0-1
1522,14,111,Q,1.0,1.165,0,1,0,0-1-0
1523,14,112,P,1.0,1.132,1,0,1,1-0-1
1524,14,113,Q,1.0,0.754,0,1,0,0-1-0
1525,14,114,Q,1.0,1.534,1,0,0,0-0-1
1526,14,115,Q,1.0,0.934,0,1,0,0-1-0
1527,14,116,P,1.0,1.317,0,0,1,1-0-0
1528,14,117,P,1.0,1.133,0,1,1,1-1-0
1529,14,118,Q,1.0,0.761,1,1,0,0-1-1
1530,14,119,Q,1.0,1.457,1,0,0,0-0-1
1531,14,120,P,1.0,0.935,0,0,1,1-0-0
1532,14,121,P,1.0,1.179,0,1,1,1-1-0
1533,14,122,P,1.0,0.89,1,0,1,1-0-1
1536,14,125,P,1.0,0.844,1,0,1,1-0-1
1537,14,126,P,1.0,0.647,0,0,1,1-0-0
1538,14,127,Q,1.0,0.851,0,0,0,0-0-0
1539,14,128,P,0.0,1.644,0,0,0,0-0-0
1540,14,129,P,1.0,0.882,1,1,1,1-1-1
1541,14,130,P,0.0,1.429,0,1,0,0-1-0
1542,14,131,Q,1.0,1.523,1,0,0,0-0-1
1543,14,132,P,1.0,1.134,1,0,1,1-0-1
1544,14,133,Q,1.0,1.685,0,1,0,0-1-0
1545,14,134,Q,1.0,0.949,0,0,0,0-0-0
1546,14,135,Q,0.0,1.454,1,1,1,1-1-1
1547,14,136,P,1.0,1.301,0,0,1,1-0-0
1548,14,137,P,1.0,1.719,0,1,1,1-1-0
1549,14,138,P,0.0,1.256,0,1,0,0-1-0
1550,14,139,Q,1.0,1.17,1,0,0,0-0-1
1551,14,140,Q,1.0,0.948,1,0,0,0-0-1
1552,14,141,P,1.0,0.935,1,1,1,1-1-1
1553,14,142,Q,1.0,1.174,0,1,0,0-1-0
1554,14,143,P,1.0,0.972,1,0,1,1-0-1
1555,14,144,P,1.0,1.246,0,1,1,1-1-0
1556,14,145,Q,1.0,0.984,0,1,0,0-1-0
1557,14,146,Q,1.0,1.697,1,1,0,0-1-1
1558,14,147,P,1.0,1.06,1,0,1,1-0-1
1559,14,148,Q,1.0,0.975,0,0,0,0-0-0
1560,14,149,Q,0.0,0.89,1,0,1,1-0-1
1561,14,150,P,1.0,0.847,0,0,1,1-0-0
1562,14,151,P,1.0,1.013,0,0,1,1-0-0
1563,14,152,Q,1.0,1.62,1,0,0,0-0-1
1564,14,153,P,1.0,0.9,0,0,1,1-0-0
1565,14,154,P,1.0,1.292,0,0,1,1-0-0
1566,14,155,P,1.0,1.189,1,0,1,1-0-1
1567,14,156,Q,1.0,0.85,0,1,0,0-1-0
1568,14,157,Q,1.0,1.048,1,1,0,0-1-1
1569,14,158,Q,1.0,1.686,1,1,0,0-1-1
1570,14,159,P,1.0,0.891,0,0,1,1-0-0
1571,14,160,Q,1.0,1.375,0,0,0,0-0-0
1572,14,161,P,1.0,1.155,1,0,1,1-0-1
1573,14,162,Q,1.0,1.265,0,0,0,0-0-0
1574,14,163,P,1.0,0.996,1,0,1,1-0-1
1575,14,164,P,0.0,0.85,1,0,0,0-0-1
1576,14,165,P,1.0,1.052,1,1,1,1-1-1
1577,14,166,Q,1.0,0.839,0,0,0,0-0-0
1578,14,167,P,1.0,1.108,0,1,1,1-1-0
1579,14,168,P,1.0,0.981,0,1,1,1-1-0
1580,14,169,Q,1.0,0.856,1,1,0,0-1-1
1581,14,170,P,1.0,1.048,0,1,1,1-1-0
1582,14,171,P,1.0,1.361,1,0,1,1-0-1
1583,14,172,Q,1.0,1.216,1,1,0,0-1-1
1584,14,173,Q,1.0,0.826,0,0,0,0-0-0
1585,14,174,P,1.0,0.939,1,1,1,1-1-1
1586,14,175,P,1.0,1.483,0,1,1,1-1-0
1587,14,176,P,1.0,1.261,1,1,1,1-1-1
1588,14,177,Q,1.0,0.902,1,1,0,0-1-1
1589,14,178,P,1.0,1.422,0,0,1,1-0-0
1590,14,179,P,1.0,0.921,0,0,1,1-0-0
1591,14,180,Q,1.0,1.046,1,0,0,0-0-1
1592,14,181,Q,1.0,1.331,1,0,0,0-0-1
1593,14,182,P,0.0,0.978,1,1,0,0-1-1
1594,14,183,P,1.0,1.063,0,1,1,1-1-0
1595,14,184,Q,1.0,1.033,1,0,0,0-0-1
1596,14,185,P,1.0,1.028,0,1,1,1-1-0
1597,14,186,P,1.0,1.166,1,1,1,1-1-1
1598,14,187,Q,1.0,1.11,1,1,0,0-1-1
1599,14,188,Q,1.0,0.923,0,1,0,0-1-0
1600,14,189,P,1.0,1.032,0,0,1,1-0-0
1601,14,190,Q,1.0,1.971,1,0,0,0-0-1
1602,14,191,Q,1.0,1.311,1,1,0,0-1-1
1603,14,192,Q,1.0,0.894,0,1,0,0-1-0
1604,14,193,P,1.0,1.238,1,1,1,1-1-1
1605,14,194,P,1.0,0.903,0,1,1,1-1-0
1606,14,195,Q,0.0,1.514,0,1,1,1-1-0
1607,14,196,P,1.0,1.861,1,1,1,1-1-1
1608,14,197,Q,1.0,0.929,0,0,0,0-0-0
1609,14,198,P,1.0,1.006,0,0,1,1-0-0
1610,14,199,P,1.0,0.825,0,0,1,1-0-0
1611,14,200,P,0.0,1.21,0,1,0,0-1-0
1612,14,201,Q,1.0,1.019,1,0,0,0-0-1
1613,14,202,Q,1.0,0.825,0,1,0,0-1-0
1614,14,203,P,1.0,1.054,1,1,1,1-1-1
1615,15,1,P,1.0,1.63,1,0,1,1-0-1
1616,15,2,Q,1.0,1.94,1,0,0,0-0-1
1617,15,3,Q,1.0,0.891,1,0,0,0-0-1
1618,15,4,Q,1.0,0.829,0,0,0,0-0-0
1619,15,5,P,1.0,1.319,0,1,1,1-1-0
1621,15,7,Q,1.0,1.3,0,0,0,0-0-0
1622,15,8,Q,1.0,0.766,1,0,0,0-0-1
1623,15,9,Q,1.0,0.823,0,1,0,0-1-0
1624,15,10,P,1.0,1.21,0,0,1,1-0-0
1625,15,11,Q,1.0,0.632,0,1,0,0-1-0
1626,15,12,Q,1.0,1.047,1,0,0,0-0-1
1627,15,13,Q,1.0,0.511,0,1,0,0-1-0
1628,15,14,P,1.0,1.161,1,1,1,1-1-1
1629,15,15,Q,1.0,0.977,0,0,0,0-0-0
1630,15,16,P,1.0,1.206,1,0,1,1-0-1
1631,15,17,Q,1.0,1.125,1,1,0,0-1-1
1632,15,18,Q,1.0,0.754,0,0,0,0-0-0
1633,15,19,P,1.0,0.778,1,1,1,1-1-1
1634,15,20,P,1.0,0.751,0,1,1,1-1-0
1635,15,21,P,1.0,0.691,1,0,1,1-0-1
1636,15,22,Q,1.0,0.643,1,0,0,0-0-1
1637,15,23,P,1.0,1.178,0,1,1,1-1-0
1638,15,24,Q,0.0,1.36,0,1,1,1-1-0
1639,15,25,Q,1.0,0.679,1,1,0,0-1-1
1640,15,26,Q,0.0,1.294,0,1,1,1-1-0
1641,15,27,Q,1.0,0.76,1,1,0,0-1-1
1642,15,28,Q,1.0,0.712,1,1,0,0-1-1
1644,15,30,P,1.0,1.47,1,1,1,1-1-1
1645,15,31,P,1.0,1.217,1,0,1,1-0-1
1646,15,32,P,1.0,0.978,0,0,1,1-0-0
1647,15,33,Q,1.0,0.715,1,1,0,0-1-1
1648,15,34,Q,0.0,1.56,0,1,1,1-1-0
1649,15,35,Q,1.0,0.906,0,1,0,0-1-0
1650,15,36,Q,1.0,0.837,0,1,0,0-1-0
1651,15,37,Q,1.0,1.217,1,0,0,0-0-1
1652,15,38,P,1.0,1.097,0,0,1,1-0-0
1653,15,39,Q,1.0,0.645,1,0,0,0-0-1
1654,15,40,P,1.0,0.849,0,0,1,1-0-0
1655,15,41,Q,1.0,1.308,1,1,0,0-1-1
1656,15,42,P,1.0,0.596,0,0,1,1-0-0
1657,15,43,P,1.0,0.759,1,1,1,1-1-1
1658,15,44,P,1.0,1.123,1,0,1,1-0-1
1659,15,45,Q,1.0,0.66,1,0,0,0-0-1
1660,15,46,Q,1.0,1.02,0,0,0,0-0-0
1661,15,47,Q,1.0,0.62,1,0,0,0-0-1
1662,15,48,P,1.0,0.679,1,0,1,1-0-1
1663,15,49,Q,1.0,0.57,1,1,0,0-1-1
1664,15,50,P,1.0,1.071,0,0,1,1-0-0
1665,15,51,Q,1.0,1.181,0,1,0,0-1-0
1666,15,52,P,1.0,0.864,1,1,1,1-1-1
1667,15,53,Q,1.0,0.905,0,0,0,0-0-0
1668,15,54,Q,1.0,0.702,1,1,0,0-1-1
1669,15,55,P,1.0,0.602,1,0,1,1-0-1
1670,15,56,P,1.0,0.572,0,1,1,1-1-0
1671,15,57,Q,1.0,0.546,0,1,0,0-1-0
1672,15,58,Q,1.0,0.661,1,0,0,0-0-1
1673,15,59,P,1.0,0.566,0,0,1,1-0-0
1674,15,60,Q,0.0,0.668,1,1,1,1-1-1
1675,15,61,Q,1.0,0.481,1,1,0,0-1-1
1676,15,62,Q,1.0,0.665,0,1,0,0-1-0
1677,15,63,P,1.0,0.607,1,0,1,1-0-1
1678,15,64,Q,1.0,0.75,1,1,0,0-1-1
1679,15,65,Q,1.0,0.91,0,0,0,0-0-0
1680,15,66,P,1.0,0.905,1,0,1,1-0-1
1681,15,67,P,1.0,0.687,0,1,1,1-1-0
1682,15,68,Q,1.0,0.528,0,0,0,0-0-0
1683,15,69,P,1.0,0.805,1,1,1,1-1-1
1685,15,71,Q,1.0,0.829,1,0,0,0-0-1
1686,15,72,Q,1.0,0.626,0,0,0,0-0-0
1687,15,73,P,1.0,0.512,1,0,1,1-0-1
1688,15,74,Q,1.0,0.774,0,0,0,0-0-0
1689,15,75,P,0.0,1.898,1,1,0,0-1-1
1690,15,76,Q,1.0,0.67,0,0,0,0-0-0
1691,15,77,P,1.0,0.631,1,1,1,1-1-1
1692,15,78,P,1.0,0.71,0,1,1,1-1-0
1693,15,79,P,1.0,0.664,0,1,1,1-1-0
1694,15,80,Q,1.0,0.687,1,0,0,0-0-1
1695,15,81,Q,1.0,0.75,0,0,0,0-0-0
1696,15,82,P,1.0,0.622,1,1,1,1-1-1
1697,15,83,Q,1.0,0.721,0,1,0,0-1-0
1698,15,84,Q,1.0,0.66,1,0,0,0-0-1
1699,15,85,P,1.0,0.703,1,1,1,1-1-1
1700,15,86,Q,1.0,0.659,0,0,0,0-0-0
1701,15,87,Q,1.0,0.887,0,1,0,0-1-0
1702,15,88,P,1.0,0.994,1,0,1,1-0-1
1703,15,89,Q,1.0,0.727,1,1,0,0-1-1
1704,15,90,Q,1.0,0.836,1,1,0,0-1-1
1705,15,91,P,1.0,0.683,0,0,1,1-0-0
1706,15,92,Q,0.0,1.219,0,0,1,1-0-0
1707,15,93,Q,1.0,0.716,1,1,0,0-1-1
1708,15,94,P,1.0,0.578,1,1,1,1-1-1
1709,15,95,Q,1.0,0.601,0,0,0,0-0-0
1710,15,96,P,1.0,1.009,1,1,1,1-1-1
1711,15,97,P,1.0,0.729,0,1,1,1-1-0
1712,15,98,P,1.0,0.953,0,1,1,1-1-0
1713,15,99,Q,1.0,1.016,0,1,0,0-1-0
1714,15,100,P,1.0,1.398,1,0,1,1-0-1
1715,15,101,P,1.0,1.234,0,0,1,1-0-0
1716,15,102,P,1.0,1.033,1,0,1,1-0-1
1717,15,103,Q,1.0,0.995,1,0,0,0-0-1
1718,15,104,P,1.0,1.054,0,1,1,1-1-0
1719,15,105,Q,0.0,1.178,1,1,1,1-1-1
1720,15,106,P,1.0,1.09,1,1,1,1-1-1
1721,15,107,Q,1.0,0.683,0,1,0,0-1-0
1722,15,108,Q,1.0,0.76,1,1,0,0-1-1
1723,15,109,Q,1.0,1.627,0,0,0,0-0-0
1724,15,110,P,1.0,1.144,1,0,1,1-0-1
1725,15,111,Q,1.0,0.943,0,1,0,0-1-0
1726,15,112,P,1.0,1.004,1,0,1,1-0-1
1727,15,113,Q,1.0,0.609,0,1,0,0-1-0
1728,15,114,Q,1.0,0.865,1,0,0,0-0-1
1729,15,115,Q,1.0,0.633,0,1,0,0-1-0
1730,15,116,Q,0.0,0.591,0,0,1,1-0-0
1731,15,117,P,1.0,0.712,0,1,1,1-1-0
1732,15,118,Q,1.0,0.631,1,1,0,0-1-1
1733,15,119,Q,1.0,1.256,1,0,0,0-0-1
1734,15,120,P,1.0,0.663,0,0,1,1-0-0
1735,15,121,Q,0.0,1.162,0,1,1,1-1-0
1736,15,122,P,1.0,0.591,1,0,1,1-0-1
1737,15,123,Q,1.0,0.672,0,1,0,0-1-0
1738,15,124,Q,0.0,1.131,1,1,1,1-1-1
1739,15,125,Q,0.0,0.703,1,0,1,1-0-1
1740,15,126,P,1.0,1.853,0,0,1,1-0-0
1741,15,127,Q,1.0,0.851,0,0,0,0-0-0
1742,15,128,Q,1.0,0.883,0,0,0,0-0-0
1743,15,129,P,1.0,0.844,1,1,1,1-1-1
1744,15,130,Q,1.0,0.694,0,1,0,0-1-0
1745,15,131,Q,1.0,0.655,1,0,0,0-0-1
1746,15,132,P,1.0,1.646,1,0,1,1-0-1
1747,15,133,Q,1.0,0.686,0,1,0,0-1-0
1748,15,134,Q,1.0,1.061,0,0,0,0-0-0
1749,15,135,P,1.0,1.045,1,1,1,1-1-1
1750,15,136,P,1.0,1.131,0,0,1,1-0-0
1751,15,137,P,1.0,1.051,0,1,1,1-1-0
1752,15,138,Q,1.0,1.327,0,1,0,0-1-0
1753,15,139,Q,1.0,0.632,1,0,0,0-0-1
1754,15,140,Q,1.0,0.514,1,0,0,0-0-1
1755,15,141,P,1.0,0.495,1,1,1,1-1-1
1756,15,142,Q,1.0,0.78,0,1,0,0-1-0
1757,15,143,P,1.0,1.186,1,0,1,1-0-1
1758,15,144,P,1.0,0.783,0,1,1,1-1-0
1759,15,145,Q,1.0,0.672,0,1,0,0-1-0
1760,15,146,Q,1.0,0.835,1,1,0,0-1-1
1761,15,147,P,1.0,1.119,1,0,1,1-0-1
1762,15,148,Q,1.0,0.888,0,0,0,0-0-0
1763,15,149,P,1.0,0.873,1,0,1,1-0-1
1764,15,150,P,1.0,0.804,0,0,1,1-0-0
1765,15,151,P,1.0,0.905,0,0,1,1-0-0
1766,15,152,Q,1.0,0.786,1,0,0,0-0-1
1767,15,153,P,1.0,0.996,0,0,1,1-0-0
1768,15,154,P,1.0,1.142,0,0,1,1-0-0
1769,15,155,P,1.0,0.983,1,0,1,1-0-1
1770,15,156,Q,1.0,0.798,0,1,0,0-1-0
1771,15,157,Q,1.0,0.946,1,1,0,0-1-1
1772,15,158,Q,1.0,0.637,1,1,0,0-1-1
1773,15,159,P,1.0,0.691,0,0,1,1-0-0
1774,15,160,Q,1.0,0.978,0,0,0,0-0-0
1775,15,161,P,1.0,0.756,1,0,1,1-0-1
1776,15,162,Q,1.0,0.675,0,0,0,0-0-0
1777,15,163,P,1.0,0.7,1,0,1,1-0-1
1778,15,164,Q,1.0,0.447,1,0,0,0-0-1
1779,15,165,P,1.0,0.692,1,1,1,1-1-1
1780,15,166,Q,1.0,0.674,0,0,0,0-0-0
1781,15,167,P,1.0,0.87,0,1,1,1-1-0
1782,15,168,P,1.0,0.755,0,1,1,1-1-0
1783,15,169,P,0.0,1.349,1,1,0,0-1-1
1784,15,170,P,1.0,0.709,0,1,1,1-1-0
1785,15,171,P,1.0,0.968,1,0,1,1-0-1
1786,15,172,Q,1.0,0.68,1,1,0,0-1-1
1787,15,173,Q,1.0,0.731,0,0,0,0-0-0
1788,15,174,P,1.0,0.756,1,1,1,1-1-1
1789,15,175,P,1.0,0.712,0,1,1,1-1-0
1790,15,176,P,1.0,0.819,1,1,1,1-1-1
1791,15,177,Q,1.0,0.62,1,1,0,0-1-1
1792,15,178,P,1.0,0.577,0,0,1,1-0-0
1793,15,179,P,1.0,0.861,0,0,1,1-0-0
1794,15,180,Q,1.0,0.503,1,0,0,0-0-1
1795,15,181,Q,1.0,0.651,1,0,0,0-0-1
1796,15,182,Q,1.0,0.779,1,1,0,0-1-1
1797,15,183,P,1.0,1.217,0,1,1,1-1-0
1798,15,184,Q,1.0,0.685,1,0,0,0-0-1
1799,15,185,P,1.0,0.721,0,1,1,1-1-0
1800,15,186,P,1.0,0.882,1,1,1,1-1-1
1801,15,187,Q,1.0,0.795,1,1,0,0-1-1
1802,15,188,Q,1.0,0.758,0,1,0,0-1-0
1803,15,189,P,1.0,0.841,0,0,1,1-0-0
1804,15,190,Q,1.0,0.611,1,0,0,0-0-1
1805,15,191,Q,1.0,0.844,1,1,0,0-1-1
1806,15,192,Q,1.0,0.78,0,1,0,0-1-0
1807,15,193,P,1.0,0.731,1,1,1,1-1-1
1808,15,194,P,1.0,0.907,0,1,1,1-1-0
1809,15,195,P,1.0,1.171,0,1,1,1-1-0
1810,15,196,Q,0.0,0.739,1,1,1,1-1-1
1811,15,197,Q,1.0,0.927,0,0,0,0-0-0
1812,15,198,P,1.0,0.909,0,0,1,1-0-0
1813,15,199,P,1.0,1.527,0,0,1,1-0-0
1814,15,200,Q,1.0,0.731,0,1,0,0-1-0
1815,15,201,Q,0.0,0.855,1,1,1,1-1-1
1816,15,202,Q,1.0,0.852,0,0,0,0-0-0
1817,15,203,P,1.0,0.667,0,0,1,1-0-0
1818,16,1,P,1.0,1.348,1,0,1,1-0-1
1819,16,2,P,0.0,1.702,1,0,0,0-0-1
1820,16,3,Q,1.0,1.244,1,0,0,0-0-1
1821,16,4,Q,1.0,0.959,0,0,0,0-0-0
1822,16,5,P,1.0,0.965,0,1,1,1-1-0
1823,16,6,P,1.0,1.674,1,1,1,1-1-1
1824,16,7,Q,1.0,0.85,0,0,0,0-0-0
1825,16,8,Q,1.0,0.887,1,0,0,0-0-1
1826,16,9,Q,1.0,1.162,0,1,0,0-1-0
1827,16,10,P,1.0,1.186,0,0,1,1-0-0
1828,16,11,Q,1.0,1.109,0,1,0,0-1-0
1829,16,12,Q,1.0,0.932,1,0,0,0-0-1
1830,16,13,Q,1.0,0.99,0,1,0,0-1-0
1831,16,14,Q,0.0,0.913,1,1,1,1-1-1
1832,16,15,Q,1.0,0.892,0,0,0,0-0-0
1833,16,16,P,1.0,1.176,1,0,1,1-0-1
1835,16,18,Q,1.0,0.751,0,0,0,0-0-0
1836,16,19,P,1.0,0.752,1,1,1,1-1-1
1837,16,20,P,1.0,0.923,0,1,1,1-1-0
1838,16,21,P,1.0,0.836,1,0,1,1-0-1
1839,16,22,Q,1.0,1.274,1,0,0,0-0-1
1840,16,23,P,1.0,0.876,0,1,1,1-1-0
1841,16,24,P,1.0,0.893,0,1,1,1-1-0
1842,16,25,Q,1.0,0.839,1,1,0,0-1-1
1843,16,26,P,1.0,0.89,0,1,1,1-1-0
1844,16,27,Q,1.0,0.611,1,1,0,0-1-1
1845,16,28,Q,1.0,0.786,1,1,0,0-1-1
1846,16,29,Q,1.0,0.793,0,0,0,0-0-0
1847,16,30,P,1.0,0.779,1,1,1,1-1-1
1848,16,31,P,1.0,0.802,1,0,1,1-0-1
1849,16,32,P,1.0,0.844,0,0,1,1-0-0
1850,16,33,Q,1.0,1.077,1,1,0,0-1-1
1851,16,34,P,1.0,0.769,0,1,1,1-1-0
1852,16,35,Q,1.0,0.787,0,1,0,0-1-0
1853,16,36,Q,1.0,0.834,0,1,0,0-1-0
1854,16,37,Q,1.0,0.934,1,0,0,0-0-1
1855,16,38,P,1.0,0.999,0,0,1,1-0-0
1856,16,39,Q,1.0,1.124,1,0,0,0-0-1
1857,16,40,P,1.0,0.79,0,0,1,1-0-0
1858,16,41,Q,1.0,0.77,1,1,0,0-1-1
1859,16,42,P,1.0,0.77,0,0,1,1-0-0
1860,16,43,P,1.0,0.656,1,1,1,1-1-1
1861,16,44,P,1.0,0.846,1,0,1,1-0-1
1862,16,45,Q,1.0,0.817,1,0,0,0-0-1
1863,16,46,Q,1.0,1.244,0,0,0,0-0-0
1864,16,47,Q,1.0,0.924,1,0,0,0-0-1
1865,16,48,P,1.0,0.819,1,0,1,1-0-1
1866,16,49,Q,1.0,0.726,1,1,0,0-1-1
1867,16,50,P,1.0,0.936,0,0,1,1-0-0
1868,16,51,Q,1.0,0.894,0,1,0,0-1-0
1869,16,52,P,1.0,1.078,1,1,1,1-1-1
1870,16,53,Q,1.0,0.823,0,0,0,0-0-0
1871,16,54,Q,1.0,0.822,1,1,0,0-1-1
1872,16,55,Q,0.0,1.009,1,0,1,1-0-1
1873,16,56,Q,0.0,0.745,0,1,1,1-1-0
1874,16,57,Q,1.0,0.947,0,1,0,0-1-0
1875,16,58,Q,1.0,1.051,1,0,0,0-0-1
1876,16,59,P,1.0,0.719,0,0,1,1-0-0
1877,16,60,Q,0.0,1.162,1,1,1,1-1-1
1878,16,61,Q,1.0,1.49,1,1,0,0-1-1
1879,16,62,Q,1.0,0.814,0,1,0,0-1-0
1880,16,63,P,1.0,0.872,1,0,1,1-0-1
1881,16,64,Q,1.0,0.902,1,1,0,0-1-1
1882,16,65,Q,1.0,1.384,0,0,0,0-0-0
1883,16,66,P,1.0,1.155,1,0,1,1-0-1
1884,16,67,P,1.0,0.726,0,1,1,1-1-0
1885,16,68,Q,1.0,0.893,0,0,0,0-0-0
1886,16,69,P,1.0,0.761,1,1,1,1-1-1
1887,16,70,Q,0.0,0.994,0,0,1,1-0-0
1888,16,71,Q,1.0,0.918,1,0,0,0-0-1
1889,16,72,Q,1.0,0.736,0,0,0,0-0-0
1890,16,73,P,1.0,0.878,1,0,1,1-0-1
1891,16,74,Q,1.0,1.369,0,0,0,0-0-0
1892,16,75,Q,1.0,1.416,1,1,0,0-1-1
1893,16,76,Q,1.0,0.782,0,0,0,0-0-0
1894,16,77,P,1.0,0.689,1,1,1,1-1-1
1895,16,78,Q,0.0,0.987,0,1,1,1-1-0
1896,16,79,P,1.0,1.154,0,1,1,1-1-0
1897,16,80,Q,1.0,0.846,1,0,0,0-0-1
1898,16,81,Q,1.0,0.852,0,0,0,0-0-0
1899,16,82,P,1.0,0.697,1,1,1,1-1-1
1900,16,83,Q,1.0,0.782,0,1,0,0-1-0
1901,16,84,Q,1.0,0.862,1,0,0,0-0-1
1902,16,85,P,1.0,0.995,1,1,1,1-1-1
1903,16,86,Q,1.0,1.201,0,0,0,0-0-0
1904,16,87,Q,1.0,1.002,0,1,0,0-1-0
1905,16,88,P,1.0,0.829,1,0,1,1-0-1
1906,16,89,Q,1.0,1.102,1,1,0,0-1-1
1907,16,90,Q,1.0,1.154,1,1,0,0-1-1
1908,16,91,Q,0.0,1.06,0,0,1,1-0-0
1909,16,92,Q,0.0,1.104,0,0,1,1-0-0
1910,16,93,Q,1.0,0.879,1,1,0,0-1-1
1911,16,94,P,1.0,0.868,1,1,1,1-1-1
1912,16,95,Q,1.0,1.052,0,0,0,0-0-0
1913,16,96,P,1.0,1.132,1,1,1,1-1-1
1914,16,97,P,1.0,0.693,0,1,1,1-1-0
1915,16,98,P,1.0,1.033,0,1,1,1-1-0
1916,16,99,Q,1.0,1.037,0,1,0,0-1-0
1917,16,100,Q,0.0,1.157,1,0,1,1-0-1
1918,16,101,P,1.0,1.506,0,0,1,1-0-0
1919,16,102,P,1.0,0.87,1,0,1,1-0-1
1920,16,103,Q,1.0,0.963,1,0,0,0-0-1
1921,16,104,Q,0.0,0.972,0,1,1,1-1-0
1922,16,105,P,1.0,1.658,1,1,1,1-1-1
1923,16,106,Q,0.0,1.245,1,1,1,1-1-1
1925,16,108,Q,1.0,0.871,1,1,0,0-1-1
1926,16,109,Q,1.0,0.812,0,0,0,0-0-0
1927,16,110,P,1.0,0.803,1,0,1,1-0-1
1928,16,111,Q,1.0,1.041,0,1,0,0-1-0
1929,16,112,Q,0.0,1.21,1,0,1,1-0-1
1930,16,113,Q,1.0,0.916,0,1,0,0-1-0
1931,16,114,Q,1.0,0.998,1,0,0,0-0-1
1932,16,115,Q,1.0,0.823,0,1,0,0-1-0
1933,16,116,P,1.0,0.887,0,0,1,1-0-0
1934,16,117,P,1.0,0.768,0,1,1,1-1-0
1935,16,118,Q,1.0,0.917,1,1,0,0-1-1
1936,16,119,Q,1.0,0.783,1,0,0,0-0-1
1937,16,120,P,1.0,0.687,0,0,1,1-0-0
1938,16,121,P,1.0,0.963,0,1,1,1-1-0
1939,16,122,P,1.0,0.808,1,0,1,1-0-1
1940,16,123,Q,1.0,0.899,0,1,0,0-1-0
1941,16,124,Q,0.0,0.925,1,1,1,1-1-1
1942,16,125,P,1.0,0.889,1,0,1,1-0-1
1943,16,126,P,1.0,1.103,0,0,1,1-0-0
1944,16,127,Q,1.0,0.877,0,0,0,0-0-0
1945,16,128,Q,1.0,0.933,0,0,0,0-0-0
1946,16,129,P,1.0,0.807,1,1,1,1-1-1
1947,16,130,Q,1.0,0.799,0,1,0,0-1-0
1948,16,131,Q,1.0,1.144,1,0,0,0-0-1
1949,16,132,P,1.0,0.852,1,0,1,1-0-1
1950,16,133,Q,1.0,0.775,0,1,0,0-1-0
1951,16,134,Q,1.0,0.803,0,0,0,0-0-0
1952,16,135,P,1.0,0.837,1,1,1,1-1-1
1953,16,136,P,1.0,0.845,0,0,1,1-0-0
1954,16,137,P,1.0,0.887,0,1,1,1-1-0
1955,16,138,Q,1.0,0.656,0,1,0,0-1-0
1956,16,139,Q,1.0,0.735,1,0,0,0-0-1
1957,16,140,Q,1.0,0.955,1,0,0,0-0-1
1958,16,141,P,1.0,1.104,1,1,1,1-1-1
1959,16,142,Q,1.0,0.927,0,1,0,0-1-0
1960,16,143,P,1.0,0.936,1,0,1,1-0-1
1961,16,144,P,1.0,1.172,0,1,1,1-1-0
1962,16,145,Q,1.0,0.814,0,1,0,0-1-0
1963,16,146,Q,1.0,1.283,1,1,0,0-1-1
1964,16,147,P,1.0,0.787,1,0,1,1-0-1
1965,16,148,Q,1.0,1.166,0,0,0,0-0-0
1966,16,149,Q,0.0,1.07,1,0,1,1-0-1
1967,16,150,Q,0.0,1.104,0,0,1,1-0-0
1968,16,151,Q,0.0,1.377,0,0,1,1-0-0
1969,16,152,Q,1.0,0.999,1,0,0,0-0-1
1970,16,153,P,1.0,0.695,0,0,1,1-0-0
1971,16,154,P,1.0,0.944,0,0,1,1-0-0
1972,16,155,P,1.0,0.7,1,0,1,1-0-1
1973,16,156,Q,1.0,0.646,0,1,0,0-1-0
1974,16,157,Q,1.0,0.876,1,1,0,0-1-1
1975,16,158,Q,1.0,0.913,1,1,0,0-1-1
1976,16,159,P,1.0,0.71,0,0,1,1-0-0
1977,16,160,Q,1.0,0.785,0,0,0,0-0-0
1978,16,161,P,1.0,0.76,1,0,1,1-0-1
1979,16,162,Q,1.0,0.715,0,0,0,0-0-0
1980,16,163,P,1.0,1.455,1,0,1,1-0-1
1981,16,164,Q,1.0,0.66,1,0,0,0-0-1
1982,16,165,P,1.0,0.904,1,1,1,1-1-1
1983,16,166,Q,1.0,0.862,0,0,0,0-0-0
1984,16,167,P,1.0,0.788,0,1,1,1-1-0
1985,16,168,P,1.0,0.81,0,1,1,1-1-0
1986,16,169,Q,1.0,1.002,1,1,0,0-1-1
1987,16,170,P,1.0,0.853,0,1,1,1-1-0
1988,16,171,P,1.0,0.851,1,0,1,1-0-1
1989,16,172,Q,1.0,0.561,1,1,0,0-1-1
1990,16,173,Q,1.0,0.782,0,0,0,0-0-0
1991,16,174,P,1.0,0.66,1,1,1,1-1-1
1992,16,175,Q,0.0,0.893,0,1,1,1-1-0
1993,16,176,Q,0.0,0.76,1,1,1,1-1-1
1994,16,177,Q,1.0,0.869,1,1,0,0-1-1
1995,16,178,P,1.0,0.769,0,0,1,1-0-0
1996,16,179,P,1.0,0.794,0,0,1,1-0-0
1997,16,180,Q,1.0,0.911,1,0,0,0-0-1
1998,16,181,Q,1.0,0.85,1,0,0,0-0-1
1999,16,182,Q,1.0,0.837,1,1,0,0-1-1
2000,16,183,P,1.0,0.818,0,1,1,1-1-0
2001,16,184,Q,1.0,1.0,1,0,0,0-0-1
2002,16,185,P,1.0,0.774,0,1,1,1-1-0
2003,16,186,P,1.0,0.644,1,1,1,1-1-1
2004,16,187,Q,1.0,0.769,1,1,0,0-1-1
2005,16,188,P,0.0,1.13,0,1,0,0-1-0
2006,16,189,P,1.0,0.935,0,0,1,1-0-0
2007,16,190,Q,1.0,0.848,1,0,0,0-0-1
2008,16,191,Q,1.0,0.918,1,1,0,0-1-1
2009,16,192,Q,1.0,1.095,0,1,0,0-1-0
2010,16,193,Q,0.0,0.938,1,1,1,1-1-1
2011,16,194,P,1.0,0.845,0,1,1,1-1-0
2012,16,195,P,1.0,1.236,0,1,1,1-1-0
2013,16,196,P,1.0,1.024,1,1,1,1-1-1
2014,16,197,Q,1.0,1.035,0,0,0,0-0-0
2015,16,198,P,1.0,0.91,0,0,1,1-0-0
2016,16,199,P,1.0,1.427,0,0,1,1-0-0
2017,16,200,Q,1.0,0.903,0,1,0,0-1-0
2018,16,201,Q,1.0,0.822,1,1,0,0-1-1
2019,16,202,Q,1.0,1.284,0,1,0,0-1-0
2020,18,1,P,1.0,1.201,1,0,1,1-0-1
2021,18,2,P,0.0,1.163,1,0,0,0-0-1
2022,18,3,Q,1.0,1.168,1,0,0,0-0-1
2023,18,4,Q,1.0,0.97,0,0,0,0-0-0
2024,18,5,P,1.0,0.714,0,1,1,1-1-0
2025,18,6,Q,0.0,1.512,1,1,1,1-1-1
2026,18,7,Q,1.0,0.832,0,0,0,0-0-0
2028,18,9,Q,1.0,1.0,0,1,0,0-1-0
2029,18,10,P,1.0,1.021,0,0,1,1-0-0
2030,18,11,Q,1.0,0.773,0,1,0,0-1-0
2031,18,12,Q,1.0,0.723,1,0,0,0-0-1
2032,18,13,Q,1.0,0.883,0,1,0,0-1-0
2033,18,14,P,1.0,0.658,1,1,1,1-1-1
2034,18,15,Q,1.0,0.676,0,0,0,0-0-0
2035,18,16,P,1.0,1.02,1,0,1,1-0-1
2036,18,17,Q,1.0,1.033,1,1,0,0-1-1
2037,18,18,Q,1.0,0.665,0,0,0,0-0-0
2038,18,19,P,1.0,0.687,1,1,1,1-1-1
2039,18,20,P,1.0,0.631,0,1,1,1-1-0
2040,18,21,P,1.0,0.718,1,0,1,1-0-1
2041,18,22,Q,1.0,0.86,1,0,0,0-0-1
2042,18,23,P,1.0,1.066,0,1,1,1-1-0
2043,18,24,P,1.0,0.944,0,1,1,1-1-0
2044,18,25,Q,1.0,0.75,1,1,0,0-1-1
2045,18,26,P,1.0,1.306,0,1,1,1-1-0
2046,18,27,Q,1.0,0.684,1,1,0,0-1-1
2047,18,28,Q,1.0,1.158,1,1,0,0-1-1
2048,18,29,Q,1.0,0.829,0,0,0,0-0-0
2049,18,30,P,1.0,0.705,1,1,1,1-1-1
2050,18,31,P,1.0,1.245,1,0,1,1-0-1
2051,18,32,P,1.0,0.665,0,0,1,1-0-0
2052,18,33,Q,1.0,0.865,1,1,0,0-1-1
2053,18,34,P,1.0,1.224,0,1,1,1-1-0
2054,18,35,Q,1.0,0.657,0,1,0,0-1-0
2055,18,36,P,0.0,1.273,0,1,0,0-1-0
2056,18,37,Q,1.0,0.641,1,0,0,0-0-1
2057,18,38,P,1.0,0.892,0,0,1,1-0-0
2058,18,39,Q,1.0,0.97,1,0,0,0-0-1
2059,18,40,P,1.0,0.663,0,0,1,1-0-0
2060,18,41,Q,1.0,0.649,1,1,0,0-1-1
2061,18,42,P,1.0,0.583,0,0,1,1-0-0
2062,18,43,P,1.0,0.815,1,1,1,1-1-1
2063,18,44,P,1.0,0.764,1,0,1,1-0-1
2064,18,45,Q,1.0,0.824,1,0,0,0-0-1
2065,18,46,Q,1.0,0.73,0,0,0,0-0-0
2066,18,47,Q,1.0,0.704,1,0,0,0-0-1
2067,18,48,P,1.0,0.755,1,0,1,1-0-1
2068,18,49,Q,1.0,0.704,1,1,0,0-1-1
2069,18,50,P,1.0,0.898,0,0,1,1-0-0
2070,18,51,Q,1.0,1.269,0,1,0,0-1-0
2071,18,52,P,1.0,1.253,1,1,1,1-1-1
2072,18,53,Q,1.0,1.093,0,0,0,0-0-0
2073,18,54,Q,1.0,0.638,1,1,0,0-1-1
2074,18,55,P,1.0,0.891,1,0,1,1-0-1
2075,18,56,P,1.0,0.874,0,1,1,1-1-0
2076,18,57,Q,1.0,0.719,0,1,0,0-1-0
2077,18,58,Q,1.0,0.718,1,0,0,0-0-1
2078,18,59,P,1.0,0.577,0,0,1,1-0-0
2079,18,60,P,1.0,1.257,1,1,1,1-1-1
2080,18,61,Q,1.0,1.554,1,1,0,0-1-1
2081,18,62,P,0.0,1.074,0,1,0,0-1-0
2082,18,63,P,1.0,0.911,1,0,1,1-0-1
2083,18,64,P,0.0,0.993,1,1,0,0-1-1
2084,18,65,Q,1.0,1.469,0,0,0,0-0-0
2085,18,66,P,1.0,1.495,1,0,1,1-0-1
2086,18,67,P,1.0,0.594,0,1,1,1-1-0
2087,18,68,Q,1.0,0.764,0,0,0,0-0-0
2088,18,69,P,1.0,0.696,1,1,1,1-1-1
2089,18,70,P,1.0,0.771,0,0,1,1-0-0
2090,18,71,Q,1.0,0.662,1,0,0,0-0-1
2091,18,72,Q,1.0,0.879,0,0,0,0-0-0
2092,18,73,P,1.0,0.573,1,0,1,1-0-1
2093,18,74,P,0.0,1.207,0,0,0,0-0-0
2094,18,75,Q,1.0,0.737,1,1,0,0-1-1
2095,18,76,Q,1.0,0.672,0,0,0,0-0-0
2096,18,77,P,1.0,0.688,1,1,1,1-1-1
2097,18,78,P,1.0,0.695,0,1,1,1-1-0
2098,18,79,P,1.0,0.752,0,1,1,1-1-0
2099,18,80,Q,1.0,0.665,1,0,0,0-0-1
2100,18,81,Q,1.0,0.776,0,0,0,0-0-0
2101,18,82,P,1.0,0.561,1,1,1,1-1-1
2102,18,83,Q,1.0,1.899,0,1,0,0-1-0
2103,18,84,Q,1.0,0.792,1,0,0,0-0-1
2104,18,85,P,1.0,0.813,1,1,1,1-1-1
2105,18,86,Q,1.0,0.754,0,0,0,0-0-0
2106,18,87,Q,1.0,0.745,0,1,0,0-1-0
2107,18,88,P,1.0,0.779,1,0,1,1-0-1
2108,18,89,Q,1.0,0.812,1,1,0,0-1-1
2109,18,90,P,0.0,1.467,1,1,0,0-1-1
2110,18,91,P,1.0,1.527,0,0,1,1-0-0
2111,18,92,P,1.0,1.064,0,0,1,1-0-0
2112,18,93,Q,1.0,0.969,1,1,0,0-1-1
2113,18,94,P,1.0,1.229,1,1,1,1-1-1
2114,18,95,Q,1.0,1.421,0,0,0,0-0-0
2115,18,96,P,1.0,0.734,1,1,1,1-1-1
2116,18,97,P,1.0,0.626,0,1,1,1-1-0
2117,18,98,P,1.0,0.937,0,1,1,1-1-0
2118,18,99,Q,1.0,1.016,0,1,0,0-1-0
2119,18,100,P,1.0,1.025,1,0,1,1-0-1
2120,18,101,P,1.0,0.734,0,0,1,1-0-0
2121,18,102,P,1.0,1.047,1,0,1,1-0-1
2122,18,103,Q,1.0,0.796,1,0,0,0-0-1
2123,18,104,P,1.0,1.192,0,1,1,1-1-0
2124,18,105,Q,0.0,1.177,1,1,1,1-1-1
2125,18,106,P,1.0,0.616,1,1,1,1-1-1
2126,18,107,P,0.0,1.327,0,1,0,0-1-0
2127,18,108,Q,1.0,1.073,1,1,0,0-1-1
2128,18,109,Q,1.0,1.208,0,0,0,0-0-0
2129,18,110,P,1.0,0.621,1,0,1,1-0-1
2130,18,111,P,0.0,1.242,0,1,0,0-1-0
2131,18,112,P,1.0,0.818,1,0,1,1-0-1
2132,18,113,Q,1.0,0.89,0,1,0,0-1-0
2133,18,114,Q,1.0,1.13,1,0,0,0-0-1
2134,18,115,P,0.0,0.943,0,1,0,0-1-0
2135,18,116,P,1.0,1.09,0,0,1,1-0-0
2136,18,117,P,1.0,0.835,0,1,1,1-1-0
2137,18,118,Q,1.0,0.842,1,1,0,0-1-1
2138,18,119,Q,1.0,0.836,1,0,0,0-0-1
2139,18,120,P,1.0,0.605,0,0,1,1-0-0
2140,18,121,Q,0.0,1.66,0,1,1,1-1-0
2141,18,122,P,1.0,0.923,1,0,1,1-0-1
2142,18,123,Q,1.0,0.817,0,1,0,0-1-0
2143,18,124,P,1.0,0.801,1,1,1,1-1-1
2144,18,125,P,1.0,0.679,1,0,1,1-0-1
2145,18,126,P,1.0,0.688,0,0,1,1-0-0
2146,18,127,Q,1.0,1.036,0,0,0,0-0-0
2147,18,128,Q,1.0,0.767,0,0,0,0-0-0
2148,18,129,P,1.0,0.638,1,1,1,1-1-1
2149,18,130,Q,1.0,1.494,0,1,0,0-1-0
2150,18,131,Q,1.0,1.054,1,0,0,0-0-1
2151,18,132,P,1.0,0.833,1,0,1,1-0-1
2152,18,133,Q,1.0,1.099,0,1,0,0-1-0
2153,18,134,Q,1.0,0.675,0,0,0,0-0-0
2154,18,135,P,1.0,0.753,1,1,1,1-1-1
2155,18,136,P,1.0,0.627,0,0,1,1-0-0
2156,18,137,P,1.0,0.832,0,1,1,1-1-0
2158,18,139,Q,1.0,0.697,1,0,0,0-0-1
2159,18,140,Q,1.0,1.062,1,0,0,0-0-1
2160,18,141,P,1.0,0.871,1,1,1,1-1-1
2161,18,142,Q,1.0,0.915,0,1,0,0-1-0
2162,18,143,P,1.0,0.642,1,0,1,1-0-1
2163,18,144,P,1.0,0.71,0,1,1,1-1-0
2164,18,145,P,0.0,1.084,0,1,0,0-1-0
2165,18,146,Q,1.0,1.08,1,1,0,0-1-1
2166,18,147,P,1.0,0.932,1,0,1,1-0-1
2167,18,148,Q,1.0,0.807,0,0,0,0-0-0
2168,18,149,P,1.0,0.962,1,0,1,1-0-1
2169,18,150,P,1.0,0.662,0,0,1,1-0-0
2170,18,151,P,1.0,0.951,0,0,1,1-0-0
2171,18,152,Q,1.0,0.916,1,0,0,0-0-1
2172,18,153,P,1.0,0.584,0,0,1,1-0-0
2173,18,154,P,1.0,0.737,0,0,1,1-0-0
2174,18,155,P,1.0,0.709,1,0,1,1-0-1
2175,18,156,P,0.0,1.358,0,1,0,0-1-0
2176,18,157,Q,1.0,1.038,1,1,0,0-1-1
2177,18,158,Q,1.0,0.978,1,1,0,0-1-1
2178,18,159,P,1.0,0.722,0,0,1,1-0-0
2179,18,160,Q,1.0,0.741,0,0,0,0-0-0
2180,18,161,P,1.0,0.746,1,0,1,1-0-1
2181,18,162,Q,1.0,1.069,0,0,0,0-0-0
2182,18,163,P,1.0,1.03,1,0,1,1-0-1
2183,18,164,Q,1.0,0.618,1,0,0,0-0-1
2184,18,165,P,1.0,0.65,1,1,1,1-1-1
2185,18,166,Q,1.0,0.824,0,0,0,0-0-0
2186,18,167,P,1.0,0.779,0,1,1,1-1-0
2187,18,168,P,1.0,0.594,0,1,1,1-1-0
2188,18,169,Q,1.0,1.156,1,1,0,0-1-1
2189,18,170,Q,0.0,0.711,0,1,1,1-1-0
2190,18,171,P,1.0,0.784,1,0,1,1-0-1
2191,18,172,Q,1.0,0.798,1,1,0,0-1-1
2192,18,173,Q,1.0,0.918,0,0,0,0-0-0
2193,18,174,Q,0.0,0.972,1,1,1,1-1-1
2194,18,175,P,1.0,0.749,0,1,1,1-1-0
2195,18,176,P,1.0,0.717,1,1,1,1-1-1
2196,18,177,Q,1.0,0.95,1,1,0,0-1-1
2197,18,178,P,1.0,0.767,0,0,1,1-0-0
2198,18,179,P,1.0,0.854,0,0,1,1-0-0
2199,18,180,Q,1.0,0.7,1,0,0,0-0-1
2200,18,181,Q,1.0,0.775,1,0,0,0-0-1
2201,18,182,Q,1.0,1.165,1,1,0,0-1-1
2202,18,183,P,1.0,0.647,0,1,1,1-1-0
2203,18,184,Q,1.0,0.618,1,0,0,0-0-1
2204,18,185,P,1.0,0.603,0,1,1,1-1-0
2205,18,186,P,1.0,0.802,1,1,1,1-1-1
2206,18,187,Q,1.0,0.723,1,1,0,0-1-1
2207,18,188,Q,1.0,1.083,0,1,0,0-1-0
2208,18,189,P,1.0,0.64,0,0,1,1-0-0
2209,18,190,Q,1.0,0.726,1,0,0,0-0-1
2210,18,191,Q,1.0,0.844,1,1,0,0-1-1
2211,18,192,P,0.0,0.904,0,1,0,0-1-0
2212,18,193,P,1.0,0.685,1,1,1,1-1-1
2213,18,194,P,1.0,1.73,0,1,1,1-1-0
2214,18,195,Q,0.0,1.075,0,1,1,1-1-0
2215,18,196,Q,0.0,0.803,1,1,1,1-1-1
2216,18,197,Q,1.0,1.258,0,0,0,0-0-0
2217,18,198,P,1.0,1.118,0,0,1,1-0-0
2218,18,199,P,1.0,1.124,0,0,1,1-0-0
2219,18,200,Q,1.0,1.304,0,1,0,0-1-0
2220,18,201,Q,1.0,1.321,1,0,0,0-0-1
2221,18,202,Q,1.0,0.689,0,1,0,0-1-0
2222,19,1,P,1.0,1.483,1,0,1,1-0-1
2223,19,2,P,0.0,0.778,1,0,0,0-0-1
2224,19,3,Q,1.0,0.495,1,0,0,0-0-1
2225,19,4,Q,1.0,0.86,0,0,0,0-0-0
2226,19,5,P,1.0,0.578,0,1,1,1-1-0
2227,19,6,P,1.0,0.986,1,1,1,1-1-1
2228,19,7,Q,1.0,0.583,0,0,0,0-0-0
2229,19,8,Q,1.0,0.973,1,0,0,0-0-1
2230,19,9,Q,1.0,1.357,0,1,0,0-1-0
2231,19,10,P,1.0,0.668,0,0,1,1-0-0
2232,19,11,Q,1.0,0.822,0,1,0,0-1-0
2233,19,12,Q,1.0,0.548,1,0,0,0-0-1
2234,19,13,Q,1.0,0.958,0,1,0,0-1-0
2235,19,14,P,1.0,0.81,1,1,1,1-1-1
2236,19,15,Q,1.0,0.642,0,0,0,0-0-0
2237,19,16,P,1.0,0.886,1,0,1,1-0-1
2238,19,17,P,0.0,0.8,1,1,0,0-1-1
2239,19,18,Q,1.0,0.566,0,0,0,0-0-0
2240,19,19,P,1.0,0.81,1,1,1,1-1-1
2241,19,20,P,1.0,1.309,0,1,1,1-1-0
2242,19,21,P,1.0,0.861,1,0,1,1-0-1
2243,19,22,Q,1.0,1.01,1,0,0,0-0-1
2244,19,23,P,1.0,1.481,0,1,1,1-1-0
2245,19,24,P,1.0,1.425,0,1,1,1-1-0
2246,19,25,Q,1.0,1.575,1,1,0,0-1-1
2247,19,26,P,1.0,1.909,0,1,1,1-1-0
2248,19,27,Q,1.0,0.639,1,1,0,0-1-1
2249,19,28,Q,1.0,1.314,1,1,0,0-1-1
2250,19,29,Q,1.0,0.831,0,0,0,0-0-0
2251,19,30,P,1.0,1.241,1,1,1,1-1-1
2252,19,31,P,1.0,0.86,1,0,1,1-0-1
2253,19,32,P,1.0,0.579,0,0,1,1-0-0
2254,19,33,P,0.0,0.806,1,1,0,0-1-1
2255,19,34,P,1.0,0.905,0,1,1,1-1-0
2256,19,35,Q,1.0,0.827,0,1,0,0-1-0
2257,19,36,P,0.0,1.896,0,1,0,0-1-0
2258,19,37,Q,1.0,0.985,1,0,0,0-0-1
2259,19,38,P,1.0,1.354,0,0,1,1-0-0
2260,19,39,Q,1.0,1.305,1,0,0,0-0-1
2261,19,40,P,1.0,1.163,0,0,1,1-0-0
2262,19,41,Q,1.0,0.911,1,1,0,0-1-1
2263,19,42,P,1.0,0.697,0,0,1,1-0-0
2264,19,43,P,1.0,1.044,1,1,1,1-1-1
2265,19,44,P,1.0,1.072,1,0,1,1-0-1
2266,19,45,Q,1.0,0.915,1,0,0,0-0-1
2268,19,47,Q,1.0,0.526,1,0,0,0-0-1
2269,19,48,P,1.0,0.646,1,0,1,1-0-1
2270,19,49,Q,1.0,0.862,1,1,0,0-1-1
2271,19,50,Q,0.0,1.156,0,0,1,1-0-0
2272,19,51,Q,1.0,0.566,0,1,0,0-1-0
2273,19,52,P,1.0,1.14,1,1,1,1-1-1
2274,19,53,Q,1.0,0.683,0,0,0,0-0-0
2275,19,54,Q,1.0,1.064,1,1,0,0-1-1
2276,19,55,Q,0.0,0.716,1,0,1,1-0-1
2277,19,56,P,1.0,0.614,0,1,1,1-1-0
2278,19,57,Q,1.0,0.818,0,1,0,0-1-0
2279,19,58,Q,1.0,0.721,1,0,0,0-0-1
2280,19,59,P,1.0,1.479,0,0,1,1-0-0
2281,19,60,Q,0.0,0.66,1,1,1,1-1-1
2282,19,61,Q,1.0,1.227,1,1,0,0-1-1
2283,19,62,Q,1.0,0.838,0,1,0,0-1-0
2284,19,63,Q,0.0,1.09,1,0,1,1-0-1
2285,19,64,Q,1.0,0.83,1,1,0,0-1-1
2286,19,65,Q,1.0,0.835,0,0,0,0-0-0
2287,19,66,Q,0.0,1.118,1,0,1,1-0-1
2288,19,67,P,1.0,1.272,0,1,1,1-1-0
2289,19,68,Q,1.0,0.712,0,0,0,0-0-0
2290,19,69,P,1.0,0.84,1,1,1,1-1-1
2291,19,70,P,1.0,1.4,0,0,1,1-0-0
2292,19,71,Q,1.0,0.925,1,0,0,0-0-1
2293,19,72,Q,1.0,0.905,0,0,0,0-0-0
2294,19,73,Q,0.0,0.833,1,0,1,1-0-1
2295,19,74,Q,1.0,1.484,0,0,0,0-0-0
2296,19,75,Q,1.0,0.729,1,1,0,0-1-1
2297,19,76,Q,1.0,0.897,0,0,0,0-0-0
2298,19,77,Q,0.0,0.721,1,1,1,1-1-1
2299,19,78,P,1.0,0.595,0,1,1,1-1-0
2300,19,79,P,1.0,0.766,0,1,1,1-1-0
2301,19,80,Q,1.0,0.916,1,0,0,0-0-1
2302,19,81,Q,1.0,1.005,0,0,0,0-0-0
2303,19,82,P,1.0,0.699,1,1,1,1-1-1
2304,19,83,Q,1.0,1.292,0,1,0,0-1-0
2305,19,84,Q,1.0,1.907,1,0,0,0-0-1
2306,19,85,P,1.0,1.093,1,1,1,1-1-1
2307,19,86,Q,1.0,1.679,0,0,0,0-0-0
2308,19,87,Q,1.0,1.25,0,1,0,0-1-0
2309,19,88,P,1.0,1.118,1,0,1,1-0-1
2311,19,90,Q,1.0,0.916,1,1,0,0-1-1
2312,19,91,Q,0.0,0.716,0,0,1,1-0-0
2313,19,92,Q,0.0,0.565,0,0,1,1-0-0
2314,19,93,Q,1.0,0.821,1,1,0,0-1-1
2315,19,94,P,1.0,0.882,1,1,1,1-1-1
2316,19,95,Q,1.0,0.54,0,0,0,0-0-0
2317,19,96,P,1.0,1.296,1,1,1,1-1-1
2318,19,97,P,1.0,1.015,0,1,1,1-1-0
2319,19,98,Q,0.0,1.15,0,1,1,1-1-0
2320,19,99,Q,1.0,0.964,0,1,0,0-1-0
2321,19,100,Q,0.0,1.042,1,0,1,1-0-1
2322,19,101,P,1.0,0.941,0,0,1,1-0-0
2323,19,102,P,1.0,1.16,1,0,1,1-0-1
2324,19,103,Q,1.0,0.836,1,0,0,0-0-1
2325,19,104,P,1.0,1.48,0,1,1,1-1-0
2326,19,105,P,1.0,0.831,1,1,1,1-1-1
2327,19,106,Q,0.0,1.096,1,1,1,1-1-1
2328,19,107,P,0.0,0.762,0,1,0,0-1-0
2329,19,108,Q,1.0,1.246,1,1,0,0-1-1
2330,19,109,P,0.0,0.832,0,0,0,0-0-0
2331,19,110,Q,0.0,1.209,1,0,1,1-0-1
2332,19,111,Q,1.0,0.92,0,1,0,0-1-0
2333,19,112,Q,0.0,0.767,1,0,1,1-0-1
2335,19,114,Q,1.0,0.86,1,0,0,0-0-1
2336,19,115,Q,1.0,1.223,0,1,0,0-1-0
2337,19,116,P,1.0,0.831,0,0,1,1-0-0
2338,19,117,P,1.0,0.661,0,1,1,1-1-0
2339,19,118,Q,1.0,0.886,1,1,0,0-1-1
2340,19,119,Q,1.0,0.764,1,0,0,0-0-1
2341,19,120,Q,0.0,0.56,0,0,1,1-0-0
2342,19,121,P,1.0,0.556,0,1,1,1-1-0
2343,19,122,P,1.0,0.744,1,0,1,1-0-1
2344,19,123,Q,1.0,0.902,0,1,0,0-1-0
2345,19,124,Q,0.0,0.771,1,1,1,1-1-1
2346,19,125,P,1.0,0.569,1,0,1,1-0-1
2347,19,126,P,1.0,0.586,0,0,1,1-0-0
2348,19,127,Q,1.0,0.829,0,0,0,0-0-0
2349,19,128,Q,1.0,0.915,0,0,0,0-0-0
2350,19,129,P,1.0,0.608,1,1,1,1-1-1
2351,19,130,Q,1.0,1.688,0,1,0,0-1-0
2352,19,131,Q,1.0,0.687,1,0,0,0-0-1
2353,19,132,P,1.0,1.276,1,0,1,1-0-1
2354,19,133,Q,1.0,0.584,0,1,0,0-1-0
2355,19,134,Q,1.0,0.606,0,0,0,0-0-0
2356,19,135,P,1.0,0.97,1,1,1,1-1-1
2357,19,136,P,1.0,0.744,0,0,1,1-0-0
2358,19,137,P,1.0,1.135,0,1,1,1-1-0
2359,19,138,Q,1.0,0.736,0,1,0,0-1-0
2360,19,139,Q,1.0,1.127,1,0,0,0-0-1
2361,19,140,Q,1.0,0.704,1,0,0,0-0-1
2362,19,141,Q,0.0,0.691,1,1,1,1-1-1
2363,19,142,Q,1.0,0.611,0,1,0,0-1-0
2364,19,143,Q,0.0,0.53,1,0,1,1-0-1
2365,19,144,P,1.0,0.781,0,1,1,1-1-0
2366,19,145,Q,1.0,0.681,0,1,0,0-1-0
2367,19,146,Q,1.0,1.11,1,1,0,0-1-1
2368,19,147,P,1.0,1.079,1,0,1,1-0-1
2369,19,148,Q,1.0,0.874,0,0,0,0-0-0
2370,19,149,P,1.0,1.496,1,0,1,1-0-1
2371,19,150,P,1.0,0.782,0,0,1,1-0-0
2372,19,151,Q,0.0,1.252,0,0,1,1-0-0
2373,19,152,P,0.0,1.943,1,0,0,0-0-1
2374,19,153,P,1.0,1.07,0,0,1,1-0-0
2375,19,154,P,1.0,0.952,0,0,1,1-0-0
2376,19,155,P,1.0,0.534,1,0,1,1-0-1
2377,19,156,Q,1.0,0.906,0,1,0,0-1-0
2378,19,157,Q,1.0,1.156,1,1,0,0-1-1
2379,19,158,Q,1.0,0.677,1,1,0,0-1-1
2380,19,159,P,1.0,0.765,0,0,1,1-0-0
2381,19,160,Q,1.0,1.105,0,0,0,0-0-0
2382,19,161,P,1.0,1.367,1,0,1,1-0-1
2383,19,162,Q,1.0,0.52,0,0,0,0-0-0
2384,19,163,P,1.0,0.881,1,0,1,1-0-1
2385,19,164,Q,1.0,0.777,1,0,0,0-0-1
2386,19,165,Q,0.0,1.211,1,1,1,1-1-1
2387,19,166,Q,1.0,0.815,0,0,0,0-0-0
2388,19,167,Q,0.0,1.05,0,1,1,1-1-0
2389,19,168,P,1.0,0.651,0,1,1,1-1-0
2390,19,169,P,0.0,1.203,1,1,0,0-1-1
2391,19,170,P,1.0,0.619,0,1,1,1-1-0
2392,19,171,P,1.0,0.63,1,0,1,1-0-1
2393,19,172,P,0.0,0.679,1,1,0,0-1-1
2394,19,173,Q,1.0,0.729,0,0,0,0-0-0
2395,19,174,P,1.0,0.763,1,1,1,1-1-1
2396,19,175,Q,0.0,0.671,0,1,1,1-1-0
2397,19,176,Q,0.0,0.835,1,1,1,1-1-1
2398,19,177,Q,1.0,0.732,1,1,0,0-1-1
2399,19,178,P,1.0,0.619,0,0,1,1-0-0
2400,19,179,P,1.0,0.696,0,0,1,1-0-0
2401,19,180,Q,1.0,0.694,1,0,0,0-0-1
2402,19,181,Q,1.0,0.771,1,0,0,0-0-1
2403,19,182,Q,1.0,1.003,1,1,0,0-1-1
2404,19,183,Q,0.0,0.546,0,1,1,1-1-0
2405,19,184,Q,1.0,0.675,1,0,0,0-0-1
2406,19,185,Q,0.0,0.803,0,1,1,1-1-0
2407,19,186,P,1.0,0.44,1,1,1,1-1-1
2408,19,187,Q,1.0,0.61,1,1,0,0-1-1
2409,19,188,Q,1.0,0.594,0,1,0,0-1-0
2410,19,189,P,1.0,0.635,0,0,1,1-0-0
2411,19,190,Q,1.0,0.606,1,0,0,0-0-1
2412,19,191,Q,1.0,0.664,1,1,0,0-1-1
2413,19,192,Q,1.0,0.963,0,1,0,0-1-0
2414,19,193,P,1.0,0.785,1,1,1,1-1-1
2415,19,194,Q,0.0,0.588,0,1,1,1-1-0
2416,19,195,Q,0.0,0.506,0,1,1,1-1-0
2417,19,196,P,1.0,0.695,1,1,1,1-1-1
2418,19,197,Q,1.0,0.851,0,0,0,0-0-0
2419,19,198,Q,0.0,0.746,0,0,1,1-0-0
2420,19,199,P,1.0,0.917,0,0,1,1-0-0
2421,19,200,Q,1.0,0.822,0,1,0,0-1-0
2422,19,201,Q,1.0,0.59,0,0,0,0-0-0
2423,19,202,P,0.0,0.885,1,1,0,0-1-1
2424,19,203,Q,1.0,0.661,0,1,0,0-1-0
2425,20,1,P,1.0,1.384,1,0,1,1-0-1
2426,20,2,P,0.0,0.907,1,0,0,0-0-1
2427,20,3,Q,1.0,0.727,1,0,0,0-0-1
2428,20,4,Q,1.0,0.663,0,0,0,0-0-0
2429,20,5,P,1.0,0.662,0,1,1,1-1-0
2431,20,7,Q,1.0,0.708,0,0,0,0-0-0
2432,20,8,Q,1.0,1.246,1,0,0,0-0-1
2433,20,9,P,0.0,0.667,0,1,0,0-1-0
2434,20,10,P,1.0,0.677,0,0,1,1-0-0
2435,20,11,Q,1.0,0.699,0,1,0,0-1-0
2436,20,12,Q,1.0,0.769,1,0,0,0-0-1
2437,20,13,Q,1.0,0.668,0,1,0,0-1-0
2438,20,14,P,1.0,0.616,1,1,1,1-1-1
2439,20,15,Q,1.0,0.491,0,0,0,0-0-0
2440,20,16,Q,0.0,0.53,1,0,1,1-0-1
2441,20,17,Q,1.0,0.884,1,1,0,0-1-1
2442,20,18,Q,1.0,0.977,0,0,0,0-0-0
2443,20,19,P,1.0,0.636,1,1,1,1-1-1
2444,20,20,P,1.0,0.649,0,1,1,1-1-0
2445,20,21,P,1.0,0.581,1,0,1,1-0-1
2446,20,22,Q,1.0,0.66,1,0,0,0-0-1
2447,20,23,P,1.0,0.565,0,1,1,1-1-0
2448,20,24,P,1.0,0.812,0,1,1,1-1-0
2449,20,25,Q,1.0,0.586,1,1,0,0-1-1
2450,20,26,P,1.0,0.652,0,1,1,1-1-0
2451,20,27,Q,1.0,0.607,1,1,0,0-1-1
2452,20,28,Q,1.0,0.898,1,1,0,0-1-1
2453,20,29,Q,1.0,0.669,0,0,0,0-0-0
2454,20,30,P,1.0,0.553,1,1,1,1-1-1
2455,20,31,Q,0.0,0.545,1,0,1,1-0-1
2456,20,32,P,1.0,0.552,0,0,1,1-0-0
2457,20,33,Q,1.0,0.932,1,1,0,0-1-1
2458,20,34,P,1.0,0.984,0,1,1,1-1-0
2459,20,35,Q,1.0,0.631,0,1,0,0-1-0
2460,20,36,Q,1.0,0.62,0,1,0,0-1-0
2461,20,37,Q,1.0,0.716,1,0,0,0-0-1
2462,20,38,P,1.0,0.814,0,0,1,1-0-0
2463,20,39,Q,1.0,0.728,1,0,0,0-0-1
2464,20,40,P,1.0,0.602,0,0,1,1-0-0
2465,20,41,Q,1.0,0.578,1,1,0,0-1-1
2466,20,42,Q,0.0,0.533,0,0,1,1-0-0
2467,20,43,Q,0.0,0.797,1,1,1,1-1-1
2468,20,44,P,1.0,1.28,1,0,1,1-0-1
2469,20,45,Q,1.0,0.768,1,0,0,0-0-1
2470,20,46,Q,1.0,1.421,0,0,0,0-0-0
2471,20,47,Q,1.0,0.656,1,0,0,0-0-1
2472,20,48,P,1.0,0.506,1,0,1,1-0-1
2473,20,49,Q,1.0,0.622,1,1,0,0-1-1
2474,20,50,P,1.0,0.533,0,0,1,1-0-0
2475,20,51,Q,1.0,0.523,0,1,0,0-1-0
2476,20,52,Q,0.0,0.527,1,1,1,1-1-1
2477,20,53,Q,1.0,0.734,0,0,0,0-0-0
2478,20,54,Q,1.0,0.579,1,1,0,0-1-1
2479,20,55,Q,0.0,0.475,1,0,1,1-0-1
2480,20,56,Q,0.0,0.841,0,1,1,1-1-0
2481,20,57,Q,1.0,0.862,0,1,0,0-1-0
2482,20,58,Q,1.0,0.67,1,0,0,0-0-1
2483,20,59,P,1.0,0.656,0,0,1,1-0-0
2484,20,60,Q,0.0,0.854,1,1,1,1-1-1
2485,20,61,Q,1.0,0.9,1,1,0,0-1-1
2486,20,62,Q,1.0,1.013,0,1,0,0-1-0
2487,20,63,P,1.0,1.097,1,0,1,1-0-1
2488,20,64,P,0.0,0.581,1,1,0,0-1-1
2489,20,65,P,0.0,0.674,0,0,0,0-0-0
2490,20,66,P,1.0,0.769,1,0,1,1-0-1
2491,20,67,P,1.0,0.828,0,1,1,1-1-0
2492,20,68,Q,1.0,0.654,0,0,0,0-0-0
2493,20,69,P,1.0,0.598,1,1,1,1-1-1
2494,20,70,P,1.0,1.073,0,0,1,1-0-0
2495,20,71,Q,1.0,0.832,1,0,0,0-0-1
2496,20,72,Q,1.0,0.703,0,0,0,0-0-0
2497,20,73,Q,0.0,0.662,1,0,1,1-0-1
2498,20,74,Q,1.0,0.991,0,0,0,0-0-0
2499,20,75,Q,1.0,1.091,1,1,0,0-1-1
2500,20,76,Q,1.0,0.808,0,0,0,0-0-0
2501,20,77,P,1.0,0.631,1,1,1,1-1-1
2502,20,78,P,1.0,0.775,0,1,1,1-1-0
2503,20,79,P,1.0,1.17,0,1,1,1-1-0
2504,20,80,Q,1.0,0.626,1,0,0,0-0-1
2505,20,81,Q,1.0,0.801,0,0,0,0-0-0
2506,20,82,P,1.0,0.59,1,1,1,1-1-1
2507,20,83,Q,1.0,0.898,0,1,0,0-1-0
2508,20,84,Q,1.0,0.534,1,0,0,0-0-1
2509,20,85,Q,0.0,0.535,1,1,1,1-1-1
2510,20,86,Q,1.0,0.619,0,0,0,0-0-0
2511,20,87,Q,1.0,1.393,0,1,0,0-1-0
2512,20,88,Q,0.0,0.584,1,0,1,1-0-1
2513,20,89,Q,1.0,0.652,1,1,0,0-1-1
2514,20,90,Q,1.0,0.554,1,1,0,0-1-1
2515,20,91,Q,0.0,0.553,0,0,1,1-0-0
2516,20,92,P,1.0,0.697,0,0,1,1-0-0
2517,20,93,Q,1.0,0.611,1,1,0,0-1-1
2518,20,94,P,1.0,0.943,1,1,1,1-1-1
2519,20,95,Q,1.0,0.827,0,0,0,0-0-0
2520,20,96,P,1.0,0.789,1,1,1,1-1-1
2521,20,97,P,1.0,0.685,0,1,1,1-1-0
2522,20,98,P,1.0,0.77,0,1,1,1-1-0
2523,20,99,Q,1.0,0.705,0,1,0,0-1-0
2524,20,100,Q,0.0,0.455,1,0,1,1-0-1
2525,20,101,P,1.0,0.614,0,0,1,1-0-0
2526,20,102,P,1.0,0.662,1,0,1,1-0-1
2527,20,103,Q,1.0,0.656,1,0,0,0-0-1
2528,20,104,P,1.0,0.609,0,1,1,1-1-0
2529,20,105,P,1.0,0.796,1,1,1,1-1-1
2530,20,106,Q,0.0,0.738,1,1,1,1-1-1
2531,20,107,P,0.0,1.756,0,1,0,0-1-0
2532,20,108,Q,1.0,0.656,1,1,0,0-1-1
2533,20,109,Q,1.0,0.802,0,0,0,0-0-0
2534,20,110,P,1.0,0.804,1,0,1,1-0-1
2535,20,111,Q,1.0,0.523,0,1,0,0-1-0
2536,20,112,Q,0.0,0.619,1,0,1,1-0-1
2537,20,113,P,0.0,0.368,0,1,0,0-1-0
2538,20,114,Q,1.0,1.393,1,0,0,0-0-1
2539,20,115,Q,1.0,0.801,0,1,0,0-1-0
2540,20,116,P,1.0,0.689,0,0,1,1-0-0
2541,20,117,Q,0.0,1.644,0,1,1,1-1-0
2542,20,118,Q,1.0,0.933,1,1,0,0-1-1
2543,20,119,P,0.0,1.18,1,0,0,0-0-1
2544,20,120,P,1.0,0.726,0,0,1,1-0-0
2545,20,121,Q,0.0,0.645,0,1,1,1-1-0
2546,20,122,Q,0.0,0.619,1,0,1,1-0-1
2547,20,123,Q,1.0,0.654,0,1,0,0-1-0
2548,20,124,Q,0.0,0.617,1,1,1,1-1-1
2549,20,125,P,1.0,0.951,1,0,1,1-0-1
2550,20,126,P,1.0,0.592,0,0,1,1-0-0
2551,20,127,Q,1.0,0.62,0,0,0,0-0-0
2552,20,128,Q,1.0,0.637,0,0,0,0-0-0
2553,20,129,P,1.0,0.681,1,1,1,1-1-1
2554,20,130,Q,1.0,1.336,0,1,0,0-1-0
2555,20,131,Q,1.0,0.639,1,0,0,0-0-1
2556,20,132,P,1.0,0.67,1,0,1,1-0-1
2557,20,133,Q,1.0,0.515,0,1,0,0-1-0
2558,20,134,Q,1.0,0.536,0,0,0,0-0-0
2559,20,135,P,1.0,0.544,1,1,1,1-1-1
2560,20,136,P,1.0,0.554,0,0,1,1-0-0
2561,20,137,Q,0.0,0.513,0,1,1,1-1-0
2562,20,138,Q,1.0,0.561,0,1,0,0-1-0
2563,20,139,Q,1.0,0.549,1,0,0,0-0-1
2564,20,140,Q,1.0,0.572,1,0,0,0-0-1
2565,20,141,Q,0.0,0.605,1,1,1,1-1-1
2566,20,142,Q,1.0,0.873,0,1,0,0-1-0
2567,20,143,P,1.0,0.737,1,0,1,1-0-1
2568,20,144,P,1.0,0.66,0,1,1,1-1-0
2569,20,145,Q,1.0,0.812,0,1,0,0-1-0
2570,20,146,Q,1.0,0.615,1,1,0,0-1-1
2571,20,147,P,1.0,0.71,1,0,1,1-0-1
2572,20,148,Q,1.0,0.781,0,0,0,0-0-0
2573,20,149,Q,0.0,1.828,1,0,1,1-0-1
2574,20,150,P,1.0,0.992,0,0,1,1-0-0
2575,20,151,P,1.0,0.988,0,0,1,1-0-0
2576,20,152,Q,1.0,0.783,1,0,0,0-0-1
2577,20,153,P,1.0,1.369,0,0,1,1-0-0
2578,20,154,Q,0.0,0.826,0,0,1,1-0-0
2579,20,155,P,1.0,1.483,1,0,1,1-0-1
2580,20,156,Q,1.0,0.722,0,1,0,0-1-0
2581,20,157,Q,1.0,0.576,1,1,0,0-1-1
2582,20,158,Q,1.0,0.638,1,1,0,0-1-1
2583,20,159,P,1.0,0.517,0,0,1,1-0-0
2584,20,160,Q,1.0,0.738,0,0,0,0-0-0
2585,20,161,Q,0.0,0.75,1,0,1,1-0-1
2586,20,162,Q,1.0,0.892,0,0,0,0-0-0
2587,20,163,P,1.0,1.092,1,0,1,1-0-1
2588,20,164,Q,1.0,1.294,1,0,0,0-0-1
2589,20,165,P,1.0,1.383,1,1,1,1-1-1
2590,20,166,P,0.0,0.331,0,0,0,0-0-0
2592,20,168,P,1.0,0.911,0,1,1,1-1-0
2593,20,169,Q,1.0,0.885,1,1,0,0-1-1
2594,20,170,P,1.0,0.717,0,1,1,1-1-0
2595,20,171,Q,0.0,0.615,1,0,1,1-0-1
2596,20,172,Q,1.0,0.627,1,1,0,0-1-1
2597,20,173,P,0.0,0.612,0,0,0,0-0-0
2598,20,174,P,1.0,0.84,1,1,1,1-1-1
2599,20,175,P,1.0,0.671,0,1,1,1-1-0
2600,20,176,P,1.0,0.754,1,1,1,1-1-1
2601,20,177,Q,1.0,0.793,1,1,0,0-1-1
2602,20,178,P,1.0,0.804,0,0,1,1-0-0
2603,20,179,P,1.0,1.149,0,0,1,1-0-0
2604,20,180,Q,1.0,1.033,1,0,0,0-0-1
2605,20,181,Q,1.0,0.775,1,0,0,0-0-1
2606,20,182,Q,1.0,0.969,1,1,0,0-1-1
2607,20,183,P,1.0,0.626,0,1,1,1-1-0
2608,20,184,Q,1.0,0.743,1,0,0,0-0-1
2609,20,185,P,1.0,0.542,0,1,1,1-1-0
2610,20,186,P,1.0,0.57,1,1,1,1-1-1
2611,20,187,Q,1.0,0.779,1,1,0,0-1-1
2612,20,188,Q,1.0,0.64,0,1,0,0-1-0
2613,20,189,P,1.0,0.689,0,0,1,1-0-0
2614,20,190,Q,1.0,0.617,1,0,0,0-0-1
2615,20,191,P,0.0,0.894,1,1,0,0-1-1
2616,20,192,Q,1.0,1.048,0,1,0,0-1-0
2617,20,193,Q,0.0,0.686,1,1,1,1-1-1
2618,20,194,P,1.0,0.657,0,1,1,1-1-0
2619,20,195,Q,0.0,0.926,0,1,1,1-1-0
2620,20,196,Q,0.0,1.15,1,1,1,1-1-1
2621,20,197,Q,1.0,0.731,0,0,0,0-0-0
2622,20,198,P,1.0,0.755,0,0,1,1-0-0
2623,20,199,P,1.0,0.757,0,0,1,1-0-0
2624,20,200,Q,1.0,0.702,0,1,0,0-1-0
2625,20,201,P,1.0,0.824,1,1,1,1-1-1
2626,20,202,P,1.0,0.91,0,1,1,1-1-0
2627,21,1,P,1.0,1.213,1,0,1,1-0-1
2628,21,2,Q,1.0,1.281,1,0,0,0-0-1
2629,21,3,Q,1.0,1.049,1,0,0,0-0-1
2630,21,4,Q,1.0,0.847,0,0,0,0-0-0
2631,21,5,P,1.0,0.708,0,1,1,1-1-0
2632,21,6,P,1.0,1.046,1,1,1,1-1-1
2633,21,7,Q,1.0,0.921,0,0,0,0-0-0
2634,21,8,Q,1.0,0.749,1,0,0,0-0-1
2635,21,9,Q,1.0,1.137,0,1,0,0-1-0
2636,21,10,Q,0.0,0.701,0,0,1,1-0-0
2637,21,11,Q,1.0,0.893,0,1,0,0-1-0
2638,21,12,Q,1.0,0.968,1,0,0,0-0-1
2639,21,13,Q,1.0,0.663,0,1,0,0-1-0
2640,21,14,P,1.0,0.719,1,1,1,1-1-1
2641,21,15,Q,1.0,0.638,0,0,0,0-0-0
2642,21,16,P,1.0,0.949,1,0,1,1-0-1
2643,21,17,Q,1.0,1.11,1,1,0,0-1-1
2644,21,18,Q,1.0,0.675,0,0,0,0-0-0
2645,21,19,P,1.0,0.65,1,1,1,1-1-1
2646,21,20,P,1.0,0.752,0,1,1,1-1-0
2647,21,21,P,1.0,0.782,1,0,1,1-0-1
2648,21,22,Q,1.0,0.989,1,0,0,0-0-1
2649,21,23,P,1.0,0.837,0,1,1,1-1-0
2650,21,24,P,1.0,0.644,0,1,1,1-1-0
2651,21,25,Q,1.0,0.731,1,1,0,0-1-1
2652,21,26,P,1.0,0.714,0,1,1,1-1-0
2653,21,27,Q,1.0,0.653,1,1,0,0-1-1
2654,21,28,Q,1.0,1.083,1,1,0,0-1-1
2655,21,29,Q,1.0,0.788,0,0,0,0-0-0
2656,21,30,P,1.0,0.702,1,1,1,1-1-1
2657,21,31,P,1.0,0.71,1,0,1,1-0-1
2658,21,32,P,1.0,0.582,0,0,1,1-0-0
2659,21,33,Q,1.0,0.643,1,1,0,0-1-1
2660,21,34,P,1.0,0.64,0,1,1,1-1-0
2661,21,35,Q,1.0,0.661,0,1,0,0-1-0
2662,21,36,Q,1.0,0.79,0,1,0,0-1-0
2663,21,37,Q,1.0,0.66,1,0,0,0-0-1
2664,21,38,P,1.0,0.673,0,0,1,1-0-0
2665,21,39,Q,1.0,0.579,1,0,0,0-0-1
2666,21,40,P,1.0,0.605,0,0,1,1-0-0
2667,21,41,Q,1.0,0.535,1,1,0,0-1-1
2668,21,42,P,1.0,0.456,0,0,1,1-0-0
2669,21,43,P,1.0,0.67,1,1,1,1-1-1
2670,21,44,P,1.0,0.626,1,0,1,1-0-1
2671,21,45,Q,1.0,0.553,1,0,0,0-0-1
2672,21,46,Q,1.0,0.889,0,0,0,0-0-0
2673,21,47,Q,1.0,0.681,1,0,0,0-0-1
2674,21,48,P,1.0,0.607,1,0,1,1-0-1
2675,21,49,Q,1.0,0.605,1,1,0,0-1-1
2676,21,50,P,1.0,0.643,0,0,1,1-0-0
2677,21,51,Q,1.0,0.712,0,1,0,0-1-0
2678,21,52,P,1.0,0.659,1,1,1,1-1-1
2679,21,53,Q,1.0,0.59,0,0,0,0-0-0
2680,21,54,Q,1.0,0.75,1,1,0,0-1-1
2681,21,55,P,1.0,0.584,1,0,1,1-0-1
2682,21,56,P,1.0,0.683,0,1,1,1-1-0
2683,21,57,Q,1.0,0.601,0,1,0,0-1-0
2684,21,58,Q,1.0,0.649,1,0,0,0-0-1
2685,21,59,P,1.0,0.581,0,0,1,1-0-0
2686,21,60,P,1.0,0.955,1,1,1,1-1-1
2687,21,61,Q,1.0,0.598,1,1,0,0-1-1
2688,21,62,Q,1.0,0.59,0,1,0,0-1-0
2689,21,63,P,1.0,0.731,1,0,1,1-0-1
2690,21,64,Q,1.0,0.629,1,1,0,0-1-1
2691,21,65,Q,1.0,0.828,0,0,0,0-0-0
2692,21,66,P,1.0,0.7,1,0,1,1-0-1
2693,21,67,P,1.0,0.616,0,1,1,1-1-0
2694,21,68,Q,1.0,0.529,0,0,0,0-0-0
2695,21,69,P,1.0,0.571,1,1,1,1-1-1
2696,21,70,P,1.0,0.698,0,0,1,1-0-0
2697,21,71,Q,1.0,0.498,1,0,0,0-0-1
2698,21,72,Q,1.0,0.648,0,0,0,0-0-0
2699,21,73,P,1.0,0.597,1,0,1,1-0-1
2700,21,74,P,0.0,0.846,0,0,0,0-0-0
2701,21,75,Q,1.0,0.862,1,1,0,0-1-1
2702,21,76,Q,1.0,0.593,0,0,0,0-0-0
2703,21,77,P,1.0,0.566,1,1,1,1-1-1
2704,21,78,P,1.0,0.572,0,1,1,1-1-0
2705,21,79,P,1.0,0.537,0,1,1,1-1-0
2706,21,80,Q,1.0,0.522,1,0,0,0-0-1
2707,21,81,Q,1.0,0.642,0,0,0,0-0-0
2708,21,82,P,1.0,0.607,1,1,1,1-1-1
2709,21,83,Q,1.0,0.668,0,1,0,0-1-0
2710,21,84,Q,1.0,0.609,1,0,0,0-0-1
2711,21,85,P,1.0,0.593,1,1,1,1-1-1
2712,21,86,Q,1.0,0.687,0,0,0,0-0-0
2713,21,87,Q,1.0,0.642,0,1,0,0-1-0
2714,21,88,Q,0.0,0.528,1,0,1,1-0-1
2715,21,89,Q,1.0,0.576,1,1,0,0-1-1
2716,21,90,P,0.0,0.613,1,1,0,0-1-1
2717,21,91,Q,0.0,0.708,0,0,1,1-0-0
2718,21,92,P,1.0,0.706,0,0,1,1-0-0
2719,21,93,Q,1.0,0.64,1,1,0,0-1-1
2720,21,94,P,1.0,0.604,1,1,1,1-1-1
2721,21,95,Q,1.0,0.572,0,0,0,0-0-0
2722,21,96,P,1.0,0.616,1,1,1,1-1-1
2723,21,97,P,1.0,0.542,0,1,1,1-1-0
2724,21,98,P,1.0,0.601,0,1,1,1-1-0
2725,21,99,Q,1.0,0.562,0,1,0,0-1-0
2726,21,100,P,1.0,0.754,1,0,1,1-0-1
2727,21,101,P,1.0,0.697,0,0,1,1-0-0
2728,21,102,Q,0.0,0.647,1,0,1,1-0-1
2729,21,103,Q,1.0,0.658,1,0,0,0-0-1
2730,21,104,P,1.0,0.602,0,1,1,1-1-0
2731,21,105,P,1.0,0.612,1,1,1,1-1-1
2732,21,106,P,1.0,0.598,1,1,1,1-1-1
2733,21,107,P,0.0,0.898,0,1,0,0-1-0
2734,21,108,Q,1.0,0.815,1,1,0,0-1-1
2735,21,109,Q,1.0,1.852,0,0,0,0-0-0
2736,21,110,P,1.0,0.755,1,0,1,1-0-1
2737,21,111,P,0.0,1.071,0,1,0,0-1-0
2738,21,112,P,1.0,0.814,1,0,1,1-0-1
2739,21,113,P,0.0,0.919,0,1,0,0-1-0
2740,21,114,Q,1.0,0.563,1,0,0,0-0-1
2741,21,115,P,0.0,1.319,0,1,0,0-1-0
2742,21,116,P,1.0,1.214,0,0,1,1-0-0
2743,21,117,P,1.0,0.507,0,1,1,1-1-0
2744,21,118,P,0.0,0.819,1,1,0,0-1-1
2745,21,119,Q,1.0,0.627,1,0,0,0-0-1
2746,21,120,P,1.0,0.744,0,0,1,1-0-0
2747,21,121,P,1.0,0.582,0,1,1,1-1-0
2748,21,122,P,1.0,0.639,1,0,1,1-0-1
2749,21,123,Q,1.0,1.294,0,1,0,0-1-0
2750,21,124,P,1.0,1.026,1,1,1,1-1-1
2751,21,125,P,1.0,0.696,1,0,1,1-0-1
2752,21,126,P,1.0,0.537,0,0,1,1-0-0
2753,21,127,Q,1.0,0.781,0,0,0,0-0-0
2754,21,128,Q,1.0,0.787,0,0,0,0-0-0
2755,21,129,P,1.0,0.657,1,1,1,1-1-1
2756,21,130,Q,1.0,0.814,0,1,0,0-1-0
2757,21,131,Q,1.0,0.715,1,0,0,0-0-1
2758,21,132,P,1.0,0.654,1,0,1,1-0-1
2759,21,133,Q,1.0,0.718,0,1,0,0-1-0
2760,21,134,Q,1.0,0.523,0,0,0,0-0-0
2761,21,135,P,1.0,0.711,1,1,1,1-1-1
2762,21,136,P,1.0,0.946,0,0,1,1-0-0
2763,21,137,P,1.0,0.758,0,1,1,1-1-0
2764,21,138,Q,1.0,0.465,0,1,0,0-1-0
2765,21,139,Q,1.0,0.607,1,0,0,0-0-1
2766,21,140,Q,1.0,0.501,1,0,0,0-0-1
2767,21,141,P,1.0,0.546,1,1,1,1-1-1
2768,21,142,Q,1.0,0.671,0,1,0,0-1-0
2769,21,143,P,1.0,0.645,1,0,1,1-0-1
2770,21,144,P,1.0,0.641,0,1,1,1-1-0
2771,21,145,Q,1.0,0.51,0,1,0,0-1-0
2772,21,146,Q,1.0,0.736,1,1,0,0-1-1
2773,21,147,Q,0.0,0.562,1,0,1,1-0-1
2774,21,148,Q,1.0,0.621,0,0,0,0-0-0
2775,21,149,P,1.0,0.64,1,0,1,1-0-1
2776,21,150,P,1.0,0.7,0,0,1,1-0-0
2777,21,151,P,1.0,0.808,0,0,1,1-0-0
2778,21,152,Q,1.0,0.619,1,0,0,0-0-1
2779,21,153,P,1.0,0.561,0,0,1,1-0-0
2780,21,154,P,1.0,0.625,0,0,1,1-0-0
2781,21,155,P,1.0,0.561,1,0,1,1-0-1
2782,21,156,Q,1.0,0.673,0,1,0,0-1-0
2783,21,157,Q,1.0,0.593,1,1,0,0-1-1
2784,21,158,Q,1.0,0.836,1,1,0,0-1-1
2785,21,159,P,1.0,0.668,0,0,1,1-0-0
2786,21,160,Q,1.0,0.686,0,0,0,0-0-0
2787,21,161,P,1.0,0.621,1,0,1,1-0-1
2788,21,162,Q,1.0,0.615,0,0,0,0-0-0
2789,21,163,P,1.0,0.919,1,0,1,1-0-1
2790,21,164,Q,1.0,0.64,1,0,0,0-0-1
2791,21,165,P,1.0,0.72,1,1,1,1-1-1
2792,21,166,Q,1.0,0.48,0,0,0,0-0-0
2793,21,167,P,1.0,0.537,0,1,1,1-1-0
2794,21,168,P,1.0,0.6,0,1,1,1-1-0
2795,21,169,Q,1.0,1.019,1,1,0,0-1-1
2796,21,170,P,1.0,0.626,0,1,1,1-1-0
2797,21,171,P,1.0,0.504,1,0,1,1-0-1
2798,21,172,Q,1.0,1.093,1,1,0,0-1-1
2799,21,173,Q,1.0,0.709,0,0,0,0-0-0
2800,21,174,P,1.0,0.553,1,1,1,1-1-1
2801,21,175,Q,0.0,0.623,0,1,1,1-1-0
2802,21,176,P,1.0,0.608,1,1,1,1-1-1
2803,21,177,Q,1.0,0.558,1,1,0,0-1-1
2804,21,178,P,1.0,0.732,0,0,1,1-0-0
2805,21,179,P,1.0,0.597,0,0,1,1-0-0
2806,21,180,Q,1.0,0.615,1,0,0,0-0-1
2807,21,181,Q,1.0,0.535,1,0,0,0-0-1
2808,21,182,Q,1.0,0.79,1,1,0,0-1-1
2809,21,183,P,1.0,0.564,0,1,1,1-1-0
2810,21,184,Q,1.0,0.465,1,0,0,0-0-1
2811,21,185,P,1.0,0.589,0,1,1,1-1-0
2812,21,186,P,1.0,0.521,1,1,1,1-1-1
2813,21,187,Q,1.0,0.574,1,1,0,0-1-1
2814,21,188,Q,1.0,0.629,0,1,0,0-1-0
2815,21,189,P,1.0,0.54,0,0,1,1-0-0
2816,21,190,Q,1.0,0.594,1,0,0,0-0-1
2817,21,191,Q,1.0,0.484,1,1,0,0-1-1
2818,21,192,Q,1.0,0.97,0,1,0,0-1-0
2819,21,193,Q,0.0,0.648,1,1,1,1-1-1
2820,21,194,P,1.0,0.657,0,1,1,1-1-0
2821,21,195,P,1.0,1.25,0,1,1,1-1-0
2822,21,196,P,1.0,0.777,1,1,1,1-1-1
2823,21,197,Q,1.0,0.648,0,0,0,0-0-0
2824,21,198,P,1.0,0.797,0,0,1,1-0-0
2825,21,199,P,1.0,0.994,0,0,1,1-0-0
2826,21,200,Q,1.0,0.707,0,1,0,0-1-0
2827,22,1,P,1.0,1.402,1,0,1,1-0-1
2828,22,2,P,0.0,0.937,1,0,0,0-0-1
2829,22,3,Q,1.0,1.2,1,0,0,0-0-1
2830,22,4,Q,1.0,0.806,0,0,0,0-0-0
2831,22,5,P,1.0,0.735,0,1,1,1-1-0
2832,22,6,Q,0.0,0.79,1,1,1,1-1-1
2833,22,7,Q,1.0,0.733,0,0,0,0-0-0
2834,22,8,Q,1.0,0.825,1,0,0,0-0-1
2835,22,9,Q,1.0,0.614,0,1,0,0-1-0
2836,22,10,P,1.0,0.695,0,0,1,1-0-0
2837,22,11,Q,1.0,0.573,0,1,0,0-1-0
2838,22,12,Q,1.0,0.592,1,0,0,0-0-1
2839,22,13,Q,1.0,0.646,0,1,0,0-1-0
2840,22,14,Q,0.0,0.657,1,1,1,1-1-1
2841,22,15,Q,1.0,0.636,0,0,0,0-0-0
2842,22,16,P,1.0,1.325,1,0,1,1-0-1
2843,22,17,Q,1.0,1.1,1,1,0,0-1-1
2844,22,18,Q,1.0,0.656,0,0,0,0-0-0
2845,22,19,P,1.0,0.609,1,1,1,1-1-1
2846,22,20,P,1.0,0.734,0,1,1,1-1-0
2847,22,21,P,1.0,0.741,1,0,1,1-0-1
2848,22,22,Q,1.0,0.703,1,0,0,0-0-1
2849,22,23,P,1.0,0.719,0,1,1,1-1-0
2850,22,24,P,1.0,0.704,0,1,1,1-1-0
2851,22,25,Q,1.0,0.493,1,1,0,0-1-1
2852,22,26,P,1.0,0.727,0,1,1,1-1-0
2853,22,27,Q,1.0,0.596,1,1,0,0-1-1
2854,22,28,Q,1.0,0.697,1,1,0,0-1-1
2855,22,29,Q,1.0,0.762,0,0,0,0-0-0
2856,22,30,P,1.0,0.906,1,1,1,1-1-1
2857,22,31,P,1.0,1.057,1,0,1,1-0-1
2858,22,32,P,1.0,0.774,0,0,1,1-0-0
2859,22,33,Q,1.0,0.769,1,1,0,0-1-1
2860,22,34,P,1.0,1.042,0,1,1,1-1-0
2861,22,35,Q,1.0,0.702,0,1,0,0-1-0
2862,22,36,Q,1.0,0.762,0,1,0,0-1-0
2863,22,37,Q,1.0,0.676,1,0,0,0-0-1
2865,22,39,Q,1.0,0.749,1,0,0,0-0-1
2866,22,40,P,1.0,0.738,0,0,1,1-0-0
2867,22,41,Q,1.0,0.698,1,1,0,0-1-1
2868,22,42,P,1.0,0.904,0,0,1,1-0-0
2869,22,43,P,1.0,0.835,1,1,1,1-1-1
2870,22,44,P,1.0,0.839,1,0,1,1-0-1
2871,22,45,Q,1.0,0.728,1,0,0,0-0-1
2872,22,46,Q,1.0,0.733,0,0,0,0-0-0
2873,22,47,Q,1.0,0.726,1,0,0,0-0-1
2874,22,48,P,1.0,0.868,1,0,1,1-0-1
2875,22,49,Q,1.0,0.755,1,1,0,0-1-1
2876,22,50,P,1.0,0.802,0,0,1,1-0-0
2877,22,51,Q,1.0,0.597,0,1,0,0-1-0
2878,22,52,P,1.0,0.858,1,1,1,1-1-1
2879,22,53,Q,1.0,0.728,0,0,0,0-0-0
2880,22,54,Q,1.0,1.155,1,1,0,0-1-1
2881,22,55,P,1.0,0.651,1,0,1,1-0-1
2882,22,56,Q,0.0,0.641,0,1,1,1-1-0
2883,22,57,Q,1.0,0.702,0,1,0,0-1-0
2884,22,58,Q,1.0,0.506,1,0,0,0-0-1
2885,22,59,P,1.0,0.439,0,0,1,1-0-0
2886,22,60,P,1.0,0.848,1,1,1,1-1-1
2887,22,61,Q,1.0,1.266,1,1,0,0-1-1
2888,22,62,Q,1.0,0.726,0,1,0,0-1-0
2889,22,63,P,1.0,0.771,1,0,1,1-0-1
2890,22,64,Q,1.0,0.599,1,1,0,0-1-1
2891,22,65,Q,1.0,0.892,0,0,0,0-0-0
2892,22,66,P,1.0,0.996,1,0,1,1-0-1
2893,22,67,P,1.0,0.644,0,1,1,1-1-0
2894,22,68,Q,1.0,0.738,0,0,0,0-0-0
2895,22,69,P,1.0,0.661,1,1,1,1-1-1
2896,22,70,P,1.0,0.721,0,0,1,1-0-0
2897,22,71,Q,1.0,0.693,1,0,0,0-0-1
2898,22,72,Q,1.0,0.769,0,0,0,0-0-0
2899,22,73,P,1.0,0.953,1,0,1,1-0-1
2900,22,74,P,0.0,0.968,0,0,0,0-0-0
2901,22,75,Q,1.0,0.983,1,1,0,0-1-1
2902,22,76,Q,1.0,0.746,0,0,0,0-0-0
2903,22,77,P,1.0,0.852,1,1,1,1-1-1
2904,22,78,P,1.0,0.727,0,1,1,1-1-0
2905,22,79,P,1.0,0.957,0,1,1,1-1-0
2906,22,80,Q,1.0,0.623,1,0,0,0-0-1
2907,22,81,Q,1.0,0.78,0,0,0,0-0-0
2908,22,82,P,1.0,0.663,1,1,1,1-1-1
2909,22,83,Q,1.0,0.611,0,1,0,0-1-0
2910,22,84,Q,1.0,0.609,1,0,0,0-0-1
2911,22,85,P,1.0,0.672,1,1,1,1-1-1
2912,22,86,Q,1.0,0.676,0,0,0,0-0-0
2913,22,87,Q,1.0,0.799,0,1,0,0-1-0
2914,22,88,P,1.0,0.778,1,0,1,1-0-1
2915,22,89,Q,1.0,0.711,1,1,0,0-1-1
2916,22,90,Q,1.0,0.634,1,1,0,0-1-1
2917,22,91,P,1.0,0.793,0,0,1,1-0-0
2918,22,92,P,1.0,0.682,0,0,1,1-0-0
2919,22,93,Q,1.0,1.068,1,1,0,0-1-1
2920,22,94,P,1.0,0.702,1,1,1,1-1-1
